"id","age_group","version","trial","block","transitions","stake","s1","choice","s2","points","score","rt1","rt2","timeout1","timeout2","timeout","stimulus_left","stimulus_right","destination1","destination2","destination3","destination4","reward1","reward2","timestamp_stake","timestamp_stakeDisappear","timestamp_spaceship","timestamp_spaceshipResponse","timestamp_monster","timestamp_monsterResponse","timestamp_reward","timestamp_end","practice","trial_index","time_elapsed","points_bc","new_transition"
"12-002","YA","A",1,1,"stable","high","2","4","2",NA,0,845,NA,"0","1","1","3","4","1","2","1","2",6,2,1.6499e+12,1.6499e+12,1.6499e+12,1.6499e+12,1.6499e+12,0,0,1.65e+12,0,0,1569549,NA,"0"
"12-002","YA","A",2,1,"stable","high","1","2","2",6,30,1194,133,"0","0","0","2","1","1","2","1","2",3,6,1.6499e+12,1.6499e+12,1.6499e+12,1.6499e+12,1.6499e+12,1.6499e+12,1.6499e+12,1.65e+12,0,1,1579772,1.5,"0"
"12-002","YA","A",3,1,"stable","high","1","2","2",3,45,677,358,"0","0","0","1","2","1","2","1","2",2,3,1.6499e+12,1.6499e+12,1.6499e+12,1.6499e+12,1.6499e+12,1.6499e+12,1.6499e+12,1.65e+12,0,2,1589390,0.5,"0"
"12-002","YA","A",4,1,"stable","high","1","1","1",4,65,923,414,"0","0","0","2","1","1","2","1","2",4,4,1.6499e+12,1.6499e+12,1.6499e+12,1.6499e+12,1.6499e+12,1.6499e+12,1.6499e+12,1.65e+12,0,3,1599208,0,"0"
"12-002","YA","A",5,1,"stable","low","2","3","1",4,69,625,690,"0","0","0","4","3","1","2","1","2",4,3,1.6499e+12,1.6499e+12,1.6499e+12,1.6499e+12,1.6499e+12,1.6499e+12,1.6499e+12,1.65e+12,0,4,1609028,0.5,"0"
"12-002","YA","A",6,1,"stable","low","1","2","2",4,73,394,564,"0","0","0","1","2","1","2","1","2",6,4,1.6499e+12,1.6499e+12,1.6499e+12,1.6499e+12,1.6499e+12,1.6499e+12,1.6499e+12,1.65e+12,0,5,1618850,-1,"0"
"12-002","YA","A",7,1,"stable","low","1","1","1",7,80,1015,344,"0","0","0","2","1","1","2","1","2",7,3,1.6499e+12,1.6499e+12,1.6499e+12,1.6499e+12,1.6499e+12,1.6499e+12,1.6499e+12,1.65e+12,0,6,1629273,2,"0"
"12-002","YA","A",8,1,"stable","high","1","1","1",5,105,798,544,"0","0","0","2","1","1","2","1","2",5,3,1.6499e+12,1.6499e+12,1.6499e+12,1.6499e+12,1.6499e+12,1.6499e+12,1.6499e+12,1.65e+12,0,7,1639295,1,"0"
"12-002","YA","A",9,1,"stable","low","1","1","1",9,114,729,155,"0","0","0","2","1","1","2","1","2",9,2,1.6499e+12,1.6499e+12,1.6499e+12,1.6499e+12,1.6499e+12,1.6499e+12,1.6499e+12,1.65e+12,0,8,1650125,3.5,"0"
"12-002","YA","A",10,1,"stable","low","1","1","1",7,121,731,453,"0","0","0","1","2","1","2","1","2",7,9,1.6499e+12,1.6499e+12,1.6499e+12,1.6499e+12,1.6499e+12,1.6499e+12,1.6499e+12,1.65e+12,0,9,1660548,-1,"0"
"12-002","YA","A",11,1,"stable","low","2","4","2",7,128,1123,108,"0","0","0","3","4","1","2","1","2",7,7,1.6499e+12,1.6499e+12,1.6499e+12,1.6499e+12,1.6499e+12,1.6499e+12,1.6499e+12,1.65e+12,0,10,1670974,0,"0"
"12-002","YA","A",12,1,"stable","low","1","2","2",6,134,593,603,"0","0","0","2","1","1","2","1","2",8,6,1.6499e+12,1.6499e+12,1.6499e+12,1.6499e+12,1.6499e+12,1.6499e+12,1.6499e+12,1.65e+12,0,11,1681198,-1,"0"
"12-002","YA","A",13,1,"stable","high","2","4","2",4,154,1106,2,"0","0","0","3","4","1","2","1","2",6,4,1.6499e+12,1.6499e+12,1.6499e+12,1.6499e+12,1.6499e+12,1.6499e+12,1.6499e+12,1.65e+12,0,12,1691021,-1,"0"
"12-002","YA","A",14,1,"stable","low","1","1","1",7,161,1146,163,"0","0","0","2","1","1","2","1","2",7,5,1.6499e+12,1.6499e+12,1.6499e+12,1.6499e+12,1.6499e+12,1.6499e+12,1.6499e+12,1.65e+12,0,13,1701449,1,"0"
"12-002","YA","A",15,1,"stable","low","2","4","2",4,165,1200,495,"0","0","0","4","3","1","2","1","2",5,4,1.6499e+12,1.6499e+12,1.6499e+12,1.6499e+12,1.6499e+12,1.6499e+12,1.6499e+12,1.65e+12,0,14,1711272,-0.5,"0"
"12-002","YA","A",16,1,"stable","low","1",NA,NA,NA,165,NA,NA,"1","0","1","1","2","1","2","1","2",2,6,1.6499e+12,1.6499e+12,1.6499e+12,0,0,0,0,1.65e+12,0,15,1717778,NA,"0"
"12-002","YA","A",17,1,"stable","low","2","3","1",1,166,669,61,"0","0","0","4","3","1","2","1","2",1,6,1.6499e+12,1.6499e+12,1.6499e+12,1.6499e+12,1.6499e+12,1.6499e+12,1.6499e+12,1.65e+12,0,16,1726996,-2.5,"0"
"12-002","YA","A",18,1,"stable","high","1","2","2",6,196,387,173,"0","0","0","2","1","1","2","1","2",1,6,1.6499e+12,1.6499e+12,1.6499e+12,1.6499e+12,1.6499e+12,1.6499e+12,1.6499e+12,1.65e+12,0,17,1737217,2.5,"0"
"12-002","YA","A",19,1,"stable","low","2","3","1",1,197,509,413,"0","0","0","3","4","1","2","1","2",1,6,1.6499e+12,1.6499e+12,1.6499e+12,1.6499e+12,1.6499e+12,1.6499e+12,1.6499e+12,1.65e+12,0,18,1746437,-2.5,"0"
"12-002","YA","A",20,1,"stable","high","1","1","1",1,202,1001,136,"0","0","0","2","1","1","2","1","2",1,2,1.6499e+12,1.6499e+12,1.6499e+12,1.6499e+12,1.6499e+12,1.6499e+12,1.6499e+12,1.65e+12,0,19,1755659,-0.5,"0"
"12-002","YA","A",21,1,"stable","high","2","4","2",2,212,524,207,"0","0","0","4","3","1","2","1","2",5,2,1.6499e+12,1.6499e+12,1.6499e+12,1.6499e+12,1.6499e+12,1.6499e+12,1.6499e+12,1.65e+12,0,20,1765076,-1.5,"0"
"12-002","YA","A",22,1,"stable","low","2","4","2",5,217,538,91,"0","0","0","4","3","1","2","1","2",6,5,1.6499e+12,1.6499e+12,1.6499e+12,1.6499e+12,1.6499e+12,1.6499e+12,1.6499e+12,1.65e+12,0,21,1775097,-0.5,"0"
"12-002","YA","A",23,1,"stable","low","1","2","2",9,226,909,472,"0","0","0","1","2","1","2","1","2",8,9,1.6499e+12,1.6499e+12,1.6499e+12,1.6499e+12,1.6499e+12,1.6499e+12,1.6499e+12,1.65e+12,0,22,1785929,0.5,"0"
"12-002","YA","A",24,1,"stable","high","2","3","1",7,261,710,455,"0","0","0","3","4","1","2","1","2",7,4,1.6499e+12,1.6499e+12,1.6499e+12,1.6499e+12,1.6499e+12,1.6499e+12,1.6499e+12,1.65e+12,0,23,1796355,1.5,"0"
"12-002","YA","A",25,1,"stable","high","2","3","1",8,301,739,54,"0","0","0","4","3","1","2","1","2",8,2,1.6499e+12,1.6499e+12,1.6499e+12,1.6499e+12,1.6499e+12,1.6499e+12,1.6499e+12,1.65e+12,0,24,1806979,3,"0"
"12-002","YA","A",26,1,"stable","high","2","4","2",1,306,1149,79,"0","0","0","3","4","1","2","1","2",8,1,1.6499e+12,1.6499e+12,1.6499e+12,1.6499e+12,1.6499e+12,1.6499e+12,1.6499e+12,1.65e+12,0,25,1816195,-3.5,"0"
"12-002","YA","A",27,1,"stable","low","1","1","1",8,314,1493,230,"0","0","0","1","2","1","2","1","2",8,1,1.6499e+12,1.6499e+12,1.6499e+12,1.6499e+12,1.6499e+12,1.6499e+12,1.6499e+12,1.65e+12,0,26,1826820,3.5,"0"
"12-002","YA","A",28,1,"stable","low","2","3","1",4,318,484,359,"0","0","0","3","4","1","2","1","2",4,2,1.6499e+12,1.6499e+12,1.6499e+12,1.6499e+12,1.6499e+12,1.6499e+12,1.6499e+12,1.65e+12,0,27,1836637,1,"0"
"12-002","YA","A",29,1,"stable","high","1","2","2",5,343,665,283,"0","0","0","2","1","1","2","1","2",8,5,1.6499e+12,1.6499e+12,1.6499e+12,1.6499e+12,1.6499e+12,1.6499e+12,1.6499e+12,1.65e+12,0,28,1846657,-1.5,"0"
"12-002","YA","A",30,1,"stable","low","1","2","2",4,347,528,1,"0","0","0","1","2","1","2","1","2",8,4,1.6499e+12,1.6499e+12,1.6499e+12,1.6499e+12,1.6499e+12,1.6499e+12,1.6499e+12,1.65e+12,0,29,1856477,-2,"0"
"12-002","YA","A",31,1,"stable","high","2","3","1",5,372,674,220,"0","0","0","3","4","1","2","1","2",5,6,1.6499e+12,1.6499e+12,1.6499e+12,1.6499e+12,1.6499e+12,1.6499e+12,1.6499e+12,1.65e+12,0,30,1866503,-0.5,"0"
"12-002","YA","A",32,1,"stable","high","2","3","1",0,372,760,74,"0","0","0","4","3","1","2","1","2",0,4,1.6499e+12,1.6499e+12,1.6499e+12,1.6499e+12,1.6499e+12,1.6499e+12,1.6499e+12,1.65e+12,0,31,1875518,-2,"0"
"12-002","YA","A",33,1,"stable","high","1","1","1",5,397,866,84,"0","0","0","2","1","1","2","1","2",5,3,1.6499e+12,1.6499e+12,1.6499e+12,1.6499e+12,1.6499e+12,1.6499e+12,1.6499e+12,1.65e+12,0,32,1885538,1,"0"
"12-002","YA","A",34,1,"stable","low","1","2","2",3,400,613,511,"0","0","0","2","1","1","2","1","2",6,3,1.6499e+12,1.6499e+12,1.6499e+12,1.6499e+12,1.6499e+12,1.6499e+12,1.6499e+12,1.65e+12,0,33,1895156,-1.5,"0"
"12-002","YA","A",35,1,"stable","high","2","4","2",2,410,491,446,"0","0","0","3","4","1","2","1","2",8,2,1.6499e+12,1.6499e+12,1.6499e+12,1.6499e+12,1.6499e+12,1.6499e+12,1.6499e+12,1.65e+12,0,34,1904572,-3,"0"
"12-002","YA","A",36,1,"stable","low","2","3","1",8,418,586,11,"0","0","0","3","4","1","2","1","2",8,2,1.6499e+12,1.6499e+12,1.6499e+12,1.6499e+12,1.6499e+12,1.6499e+12,1.6499e+12,1.65e+12,0,35,1915198,3,"0"
"12-002","YA","A",37,1,"stable","high","2","3","1",5,443,520,313,"0","0","0","4","3","1","2","1","2",5,2,1.6499e+12,1.6499e+12,1.6499e+12,1.6499e+12,1.6499e+12,1.6499e+12,1.6499e+12,1.65e+12,0,36,1925222,1.5,"0"
"12-002","YA","A",38,1,"stable","high","1","1","1",5,468,848,195,"0","0","0","1","2","1","2","1","2",5,7,1.6499e+12,1.6499e+12,1.6499e+12,1.6499e+12,1.6499e+12,1.6499e+12,1.6499e+12,1.65e+12,0,37,1935241,-1,"0"
"12-002","YA","A",39,1,"stable","high","2","3","1",6,498,461,607,"0","0","0","3","4","1","2","1","2",6,6,1.6499e+12,1.6499e+12,1.6499e+12,1.6499e+12,1.6499e+12,1.6499e+12,1.6499e+12,1.65e+12,0,38,1945465,0,"0"
"12-002","YA","A",40,1,"stable","high","1","1","1",7,533,730,140,"0","0","0","1","2","1","2","1","2",7,8,1.6499e+12,1.6499e+12,1.6499e+12,1.6499e+12,1.6499e+12,1.6499e+12,1.6499e+12,1.65e+12,0,39,1955891,-0.5,"0"
"12-002","YA","A",41,1,"stable","low","2","3","1",6,539,844,798,"0","0","0","4","3","1","2","1","2",6,7,1.6499e+12,1.6499e+12,1.6499e+12,1.6499e+12,1.6499e+12,1.6499e+12,1.6499e+12,1.65e+12,0,40,1966114,-0.5,"0"
"12-002","YA","A",42,1,"stable","high","2","3","1",1,544,492,223,"0","0","0","3","4","1","2","1","2",1,7,1.6499e+12,1.6499e+12,1.6499e+12,1.6499e+12,1.6499e+12,1.6499e+12,1.6499e+12,1.65e+12,0,41,1975329,-3,"0"
"12-002","YA","A",43,1,"stable","high","2","4","2",5,569,477,559,"0","0","0","4","3","1","2","1","2",2,5,1.6499e+12,1.6499e+12,1.6499e+12,1.6499e+12,1.6499e+12,1.6499e+12,1.6499e+12,1.65e+12,0,42,1985350,1.5,"0"
"12-002","YA","A",44,1,"stable","low","2","4","2",7,576,585,80,"0","0","0","4","3","1","2","1","2",2,7,1.6499e+12,1.6499e+12,1.6499e+12,1.6499e+12,1.6499e+12,1.6499e+12,1.6499e+12,1.65e+12,0,43,1995774,2.5,"0"
"12-002","YA","A",45,1,"stable","low","2","3","1",3,579,879,265,"0","0","0","4","3","1","2","1","2",3,8,1.6499e+12,1.6499e+12,1.6499e+12,1.6499e+12,1.6499e+12,1.6499e+12,1.6499e+12,1.65e+12,0,44,2005394,-2.5,"0"
"12-002","YA","A",46,1,"stable","low","2","4","2",8,587,556,311,"0","0","0","3","4","1","2","1","2",7,8,1.6499e+12,1.6499e+12,1.6499e+12,1.6499e+12,1.6499e+12,1.6499e+12,1.6499e+12,1.65e+12,0,45,2016017,0.5,"0"
"12-002","YA","A",47,1,"stable","high","1","2","2",9,632,847,186,"0","0","0","1","2","1","2","1","2",1,9,1.6499e+12,1.6499e+12,1.6499e+12,1.6499e+12,1.6499e+12,1.6499e+12,1.6499e+12,1.65e+12,0,46,2026843,4,"0"
"12-002","YA","A",48,1,"stable","high","2","4","2",9,677,843,382,"0","0","0","4","3","1","2","1","2",1,9,1.6499e+12,1.6499e+12,1.6499e+12,1.6499e+12,1.6499e+12,1.6499e+12,1.6499e+12,1.65e+12,0,47,2037670,4,"0"
"12-002","YA","A",49,1,"stable","high","2","4","2",6,707,687,434,"0","0","0","4","3","1","2","1","2",1,6,1.6499e+12,1.6499e+12,1.6499e+12,1.6499e+12,1.6499e+12,1.6499e+12,1.6499e+12,1.65e+12,0,48,2047896,2.5,"0"
"12-002","YA","A",50,1,"stable","high","2","4","2",7,742,510,920,"0","0","0","4","3","1","2","1","2",0,7,1.6499e+12,1.6499e+12,1.6499e+12,1.6499e+12,1.6499e+12,1.6499e+12,1.6499e+12,1.65e+12,0,49,2058323,3.5,"0"
"12-002","YA","A",51,1,"stable","high","1","2","2",6,772,921,242,"0","0","0","2","1","1","2","1","2",2,6,1.6499e+12,1.6499e+12,1.6499e+12,1.6499e+12,1.6499e+12,1.6499e+12,1.6499e+12,1.65e+12,0,50,2068550,2,"0"
"12-002","YA","A",52,1,"stable","high","2","4","2",4,792,806,448,"0","0","0","4","3","1","2","1","2",0,4,1.6499e+12,1.6499e+12,1.6499e+12,1.6499e+12,1.6499e+12,1.6499e+12,1.6499e+12,1.65e+12,0,51,2078373,2,"0"
"12-002","YA","A",53,1,"stable","high","2","4","2",5,817,832,26,"0","0","0","3","4","1","2","1","2",4,5,1.6499e+12,1.6499e+12,1.6499e+12,1.6499e+12,1.6499e+12,1.6499e+12,1.6499e+12,1.65e+12,0,52,2088396,0.5,"0"
"12-002","YA","A",54,1,"stable","low","2","4","2",5,822,827,95,"0","0","0","4","3","1","2","1","2",4,5,1.6499e+12,1.6499e+12,1.6499e+12,1.6499e+12,1.6499e+12,1.6499e+12,1.6499e+12,1.65e+12,0,53,2098416,0.5,"0"
"12-002","YA","A",55,1,"stable","high","1","2","2",8,862,854,368,"0","0","0","1","2","1","2","1","2",6,8,1.6499e+12,1.6499e+12,1.6499e+12,1.6499e+12,1.6499e+12,1.6499e+12,1.6499e+12,1.65e+12,0,54,2109040,1,"0"
"12-002","YA","A",56,1,"stable","low","1","2","2",6,868,598,114,"0","0","0","2","1","1","2","1","2",5,6,1.6499e+12,1.6499e+12,1.6499e+12,1.6499e+12,1.6499e+12,1.6499e+12,1.6499e+12,1.65e+12,0,55,2119263,0.5,"0"
"12-002","YA","A",57,1,"stable","high","1","2","2",8,908,983,288,"0","0","0","2","1","1","2","1","2",5,8,1.6499e+12,1.6499e+12,1.6499e+12,1.6499e+12,1.6499e+12,1.6499e+12,1.6499e+12,1.65e+12,0,56,2129895,1.5,"0"
"12-002","YA","A",58,1,"stable","low","2","4","2",8,916,721,73,"0","0","0","3","4","1","2","1","2",5,8,1.6499e+12,1.6499e+12,1.6499e+12,1.6499e+12,1.6499e+12,1.6499e+12,1.6499e+12,1.65e+12,0,57,2140519,1.5,"0"
"12-002","YA","A",59,1,"stable","high","1","2","2",8,956,648,467,"0","0","0","1","2","1","2","1","2",4,8,1.6499e+12,1.6499e+12,1.6499e+12,1.6499e+12,1.6499e+12,1.6499e+12,1.6499e+12,1.65e+12,0,58,2151141,2,"0"
"12-002","YA","A",60,1,"stable","low","2","4","2",8,964,595,255,"0","0","0","3","4","1","2","1","2",3,8,1.6499e+12,1.6499e+12,1.6499e+12,1.6499e+12,1.6499e+12,1.6499e+12,1.6499e+12,1.65e+12,0,59,2161763,2.5,"0"
"12-002","YA","A",61,1,"stable","low","1","2","2",8,972,484,565,"0","0","0","1","2","1","2","1","2",3,8,1.6499e+12,1.6499e+12,1.6499e+12,1.6499e+12,1.6499e+12,1.6499e+12,1.6499e+12,1.65e+12,0,60,2172386,2.5,"0"
"12-002","YA","A",62,1,"stable","low","1","2","2",9,981,525,558,"0","0","0","2","1","1","2","1","2",1,9,1.6499e+12,1.6499e+12,1.6499e+12,1.6499e+12,1.6499e+12,1.6499e+12,1.6499e+12,1.65e+12,0,61,2183212,4,"0"
"12-002","YA","A",63,1,"stable","low","2","4","2",8,989,674,1307,"0","0","0","3","4","1","2","1","2",4,8,1.6499e+12,1.6499e+12,1.6499e+12,1.6499e+12,1.6499e+12,1.6499e+12,1.6499e+12,1.65e+12,0,62,2193837,2,"0"
"12-002","YA","A",64,1,"stable","low","2","4","2",4,993,475,486,"0","0","0","4","3","1","2","1","2",5,4,1.6499e+12,1.6499e+12,1.6499e+12,1.6499e+12,1.6499e+12,1.6499e+12,1.6499e+12,1.65e+12,0,63,2203655,-0.5,"0"
"12-002","YA","A",65,1,"stable","low","1","1","1",9,1002,640,473,"0","0","0","2","1","1","2","1","2",9,5,1.6499e+12,1.6499e+12,1.6499e+12,1.6499e+12,1.6499e+12,1.6499e+12,1.6499e+12,1.65e+12,0,64,2214482,2,"0"
"12-002","YA","A",66,1,"stable","high","1","1","1",8,1042,1077,183,"0","0","0","1","2","1","2","1","2",8,7,1.6499e+12,1.6499e+12,1.6499e+12,1.6499e+12,1.6499e+12,1.6499e+12,1.6499e+12,1.65e+12,0,65,2225109,0.5,"0"
"12-002","YA","A",67,1,"stable","low","2","3","1",8,1050,675,654,"0","0","0","3","4","1","2","1","2",8,8,1.6499e+12,1.6499e+12,1.6499e+12,1.6499e+12,1.6499e+12,1.6499e+12,1.6499e+12,1.65e+12,0,66,2235735,0,"0"
"12-002","YA","A",68,1,"stable","low","2","3","1",7,1057,469,112,"0","0","0","4","3","1","2","1","2",7,8,1.6499e+12,1.6499e+12,1.6499e+12,1.6499e+12,1.6499e+12,1.6499e+12,1.6499e+12,1.65e+12,0,67,2246159,-0.5,"0"
"12-002","YA","A",69,1,"stable","high","2","3","1",9,1102,856,472,"0","0","0","3","4","1","2","1","2",9,8,1.6499e+12,1.6499e+12,1.6499e+12,1.6499e+12,1.6499e+12,1.6499e+12,1.6499e+12,1.65e+12,0,68,2256990,0.5,"0"
"12-002","YA","A",70,1,"stable","high","2","3","1",8,1142,513,676,"0","0","0","4","3","1","2","1","2",8,8,1.6499e+12,1.6499e+12,1.6499e+12,1.6499e+12,1.6499e+12,1.6499e+12,1.6499e+12,1.65e+12,0,69,2267618,0,"0"
"12-002","YA","A",71,1,"stable","low","1","2","2",8,1150,1180,566,"0","0","0","1","2","1","2","1","2",6,8,1.6499e+12,1.6499e+12,1.6499e+12,1.6499e+12,1.6499e+12,1.6499e+12,1.6499e+12,1.65e+12,0,70,2278243,1,"0"
"12-002","YA","A",72,1,"stable","low","2","3","1",7,1157,468,14,"0","0","0","3","4","1","2","1","2",7,6,1.6499e+12,1.6499e+12,1.6499e+12,1.6499e+12,1.6499e+12,1.6499e+12,1.6499e+12,1.65e+12,0,71,2288668,0.5,"0"
"12-002","YA","A",73,1,"stable","low","1","1","1",6,1163,634,443,"0","0","0","2","1","1","2","1","2",6,5,1.6499e+12,1.6499e+12,1.6499e+12,1.6499e+12,1.6499e+12,1.6499e+12,1.6499e+12,1.65e+12,0,72,2298892,0.5,"0"
"12-002","YA","A",74,1,"stable","low","1","2","2",5,1168,643,470,"0","0","0","1","2","1","2","1","2",2,5,1.6499e+12,1.6499e+12,1.6499e+12,1.6499e+12,1.6499e+12,1.6499e+12,1.6499e+12,1.65e+12,0,73,2308913,1.5,"0"
"12-002","YA","A",75,1,"stable","high","1","1","1",1,1173,575,544,"0","0","0","1","2","1","2","1","2",1,6,1.6499e+12,1.6499e+12,1.6499e+12,1.6499e+12,1.6499e+12,1.6499e+12,1.6499e+12,1.65e+12,0,74,2318128,-2.5,"0"
"12-002","YA","A",76,1,"stable","high","1","2","2",8,1213,805,143,"0","0","0","1","2","1","2","1","2",1,8,1.6499e+12,1.6499e+12,1.6499e+12,1.6499e+12,1.6499e+12,1.6499e+12,1.6499e+12,1.65e+12,0,75,2328754,3.5,"0"
"12-002","YA","A",77,1,"stable","high","1","2","2",7,1248,572,295,"0","0","0","1","2","1","2","1","2",2,7,1.6499e+12,1.6499e+12,1.6499e+12,1.6499e+12,1.6499e+12,1.6499e+12,1.6499e+12,1.65e+12,0,76,2339177,2.5,"0"
"12-002","YA","A",78,1,"stable","low","1","2","2",6,1254,645,926,"0","0","0","2","1","1","2","1","2",0,6,1.6499e+12,1.6499e+12,1.6499e+12,1.6499e+12,1.6499e+12,1.6499e+12,1.6499e+12,1.65e+12,0,77,2349401,3,"0"
"12-002","YA","A",79,1,"stable","low","1","2","2",2,1256,619,428,"0","0","0","1","2","1","2","1","2",3,2,1.6499e+12,1.6499e+12,1.6499e+12,1.6499e+12,1.6499e+12,1.6499e+12,1.6499e+12,1.65e+12,0,78,2358822,-0.5,"0"
"12-002","YA","A",80,1,"stable","high","1","1","1",6,1286,561,107,"0","0","0","2","1","1","2","1","2",6,3,1.6499e+12,1.6499e+12,1.6499e+12,1.6499e+12,1.6499e+12,1.6499e+12,1.6499e+12,1.65e+12,0,79,2369046,1.5,"0"
"12-002","YA","A",81,2,"variable","low","1","1","1",6,1292,399,1489,"0","0","0","1","2","1","2","2","1",6,1,1.6499e+12,1.6499e+12,1.6499e+12,1.6499e+12,1.6499e+12,1.6499e+12,1.6499e+12,1.65e+12,0,80,2507006,2.5,"0"
"12-002","YA","A",82,2,"variable","low","1","1","1",8,1300,624,689,"0","0","0","2","1","1","2","2","1",8,1,1.6499e+12,1.6499e+12,1.6499e+12,1.6499e+12,1.6499e+12,1.6499e+12,1.6499e+12,1.65e+12,0,81,2517636,3.5,"0"
"12-002","YA","A",83,2,"variable","low","2","4","1",6,1306,705,762,"0","0","0","3","4","1","2","2","1",6,4,1.6499e+12,1.6499e+12,1.6499e+12,1.6499e+12,1.6499e+12,1.6499e+12,1.6499e+12,1.65e+12,0,82,2527860,1,"1"
"12-002","YA","A",84,2,"variable","high","1","1","1",9,1351,1338,414,"0","0","0","2","1","1","2","2","1",9,2,1.6499e+12,1.6499e+12,1.6499e+12,1.6499e+12,1.6499e+12,1.6499e+12,1.6499e+12,1.65e+12,0,83,2538686,3.5,"0"
"12-002","YA","A",85,2,"variable","low","2","4","1",7,1358,767,522,"0","0","0","3","4","1","2","2","1",7,4,1.6499e+12,1.6499e+12,1.6499e+12,1.6499e+12,1.6499e+12,1.6499e+12,1.6499e+12,1.65e+12,0,84,2549110,1.5,"0"
"12-002","YA","A",86,2,"variable","low","1","1","1",9,1367,767,272,"0","0","0","2","1","1","2","2","1",9,7,1.6499e+12,1.6499e+12,1.6499e+12,1.6499e+12,1.6499e+12,1.6499e+12,1.6499e+12,1.65e+12,0,85,2559942,1,"0"
"12-002","YA","A",87,2,"variable","high","1","1","1",9,1412,600,483,"0","0","0","1","2","1","2","2","1",9,7,1.6499e+12,1.6499e+12,1.6499e+12,1.6499e+12,1.6499e+12,1.6499e+12,1.6499e+12,1.65e+12,0,86,2570768,1,"0"
"12-002","YA","A",88,2,"variable","low","2","3","2",8,1420,596,622,"0","0","0","3","4","1","2","2","1",6,8,1.6499e+12,1.6499e+12,1.6499e+12,1.6499e+12,1.6499e+12,1.6499e+12,1.6499e+12,1.65e+12,0,87,2581399,1,"0"
"12-002","YA","A",89,2,"variable","high","2","3","2",9,1465,614,664,"0","0","0","3","4","1","2","2","1",3,9,1.6499e+12,1.6499e+12,1.6499e+12,1.6499e+12,1.6499e+12,1.6499e+12,1.6499e+12,1.65e+12,0,88,2592229,3,"0"
"12-002","YA","A",90,2,"variable","high","2","3","2",8,1505,586,483,"0","0","0","4","3","1","2","2","1",1,8,1.6499e+12,1.6499e+12,1.6499e+12,1.6499e+12,1.6499e+12,1.6499e+12,1.6499e+12,1.65e+12,0,89,2602855,3.5,"0"
"12-002","YA","A",91,2,"variable","high","2","3","2",6,1535,568,393,"0","0","0","3","4","1","2","2","1",3,6,1.6499e+12,1.6499e+12,1.6499e+12,1.6499e+12,1.6499e+12,1.6499e+12,1.6499e+12,1.65e+12,0,90,2613080,1.5,"0"
"12-002","YA","A",92,2,"variable","low","2","3","2",8,1543,430,153,"0","0","0","4","3","1","2","2","1",0,8,1.6499e+12,1.6499e+12,1.6499e+12,1.6499e+12,1.6499e+12,1.6499e+12,1.6499e+12,1.65e+12,0,91,2623706,4,"0"
"12-002","YA","A",93,2,"variable","low","2","3","2",7,1550,948,287,"0","0","0","4","3","2","1","2","1",4,7,1.6499e+12,1.6499e+12,1.6499e+12,1.6499e+12,1.6499e+12,1.6499e+12,1.6499e+12,1.65e+12,0,92,2634131,1.5,"0"
"12-002","YA","A",94,2,"variable","low","1","2","1",7,1557,443,469,"0","0","0","2","1","2","1","2","1",7,7,1.6499e+12,1.6499e+12,1.6499e+12,1.6499e+12,1.6499e+12,1.6499e+12,1.6499e+12,1.65e+12,0,93,2644556,0,"1"
"12-002","YA","A",95,2,"variable","high","2","4","1",9,1602,569,499,"0","0","0","4","3","2","1","2","1",9,8,1.6499e+12,1.6499e+12,1.6499e+12,1.6499e+12,1.6499e+12,1.6499e+12,1.6499e+12,1.65e+12,0,94,2655386,0.5,"0"
"12-002","YA","A",96,2,"variable","high","1","1","2",6,1632,587,462,"0","0","0","2","1","2","1","2","1",8,6,1.6499e+12,1.6499e+12,1.6499e+12,1.6499e+12,1.6499e+12,1.6499e+12,1.6499e+12,1.65e+12,0,95,2665610,-1,"0"
"12-002","YA","A",97,2,"variable","high","1","2","1",8,1672,723,84,"0","0","0","1","2","2","1","2","1",8,8,1.6499e+12,1.6499e+12,1.6499e+12,1.6499e+12,1.6499e+12,1.6499e+12,1.6499e+12,1.65e+12,0,96,2676238,0,"0"
"12-002","YA","A",98,2,"variable","low","1","2","1",8,1680,792,27,"0","0","0","2","1","2","1","2","1",8,2,1.6499e+12,1.6499e+12,1.6499e+12,1.6499e+12,1.6499e+12,1.6499e+12,1.6499e+12,1.65e+12,0,97,2686861,3,"0"
"12-002","YA","A",99,2,"variable","high","2","4","1",7,1715,904,410,"0","0","0","3","4","2","1","2","1",7,2,1.6499e+12,1.6499e+12,1.6499e+12,1.6499e+12,1.6499e+12,1.6499e+12,1.6499e+12,1.65e+12,0,98,2697288,2.5,"0"
"12-002","YA","A",100,2,"variable","low","2","4","1",6,1721,565,399,"0","0","0","4","3","2","1","2","1",6,1,1.6499e+12,1.6499e+12,1.6499e+12,1.6499e+12,1.6499e+12,1.6499e+12,1.6499e+12,1.65e+12,0,99,2707510,2.5,"0"
"12-002","YA","A",101,2,"variable","high","2","4","2",1,1726,887,296,"0","0","0","4","3","2","1","1","2",7,1,1.6499e+12,1.6499e+12,1.6499e+12,1.6499e+12,1.6499e+12,1.6499e+12,1.6499e+12,1.65e+12,0,100,2716727,-3,"1"
"12-002","YA","A",102,2,"variable","high","1","1","2",5,1751,598,353,"0","0","0","2","1","2","1","1","2",5,5,1.6499e+12,1.6499e+12,1.6499e+12,1.6499e+12,1.6499e+12,1.6499e+12,1.6499e+12,1.65e+12,0,101,2726752,0,"0"
"12-002","YA","A",103,2,"variable","low","1","2","1",3,1754,783,169,"0","0","0","2","1","2","1","1","2",3,3,1.6499e+12,1.6499e+12,1.6499e+12,1.6499e+12,1.6499e+12,1.6499e+12,1.6499e+12,1.65e+12,0,102,2736371,0,"0"
"12-002","YA","A",104,2,"variable","high","2","4","2",3,1769,1041,290,"0","0","0","3","4","2","1","1","2",0,3,1.6499e+12,1.6499e+12,1.6499e+12,1.6499e+12,1.6499e+12,1.6499e+12,1.6499e+12,1.65e+12,0,103,2745994,1.5,"0"
"12-002","YA","A",105,2,"variable","high","1","2","1",2,1779,460,325,"0","0","0","2","1","2","1","1","2",2,3,1.6499e+12,1.6499e+12,1.6499e+12,1.6499e+12,1.6499e+12,1.6499e+12,1.6499e+12,1.65e+12,0,104,2755412,-0.5,"0"
"12-002","YA","A",106,2,"variable","high","1","2","1",2,1789,570,11,"0","0","0","1","2","2","1","1","2",2,3,1.6499e+12,1.6499e+12,1.6499e+12,1.6499e+12,1.6499e+12,1.6499e+12,1.6499e+12,1.65e+12,0,105,2764831,-0.5,"0"
"12-002","YA","A",107,2,"variable","low","2","4","1",6,1795,750,185,"0","0","0","4","3","2","1","2","1",6,1,1.6499e+12,1.6499e+12,1.6499e+12,1.6499e+12,1.6499e+12,1.6499e+12,1.6499e+12,1.65e+12,0,106,2775056,2.5,"1"
"12-002","YA","A",108,2,"variable","low","1","1","2",1,1796,789,625,"0","0","0","2","1","2","1","2","1",7,1,1.6499e+12,1.6499e+12,1.6499e+12,1.6499e+12,1.6499e+12,1.6499e+12,1.6499e+12,1.65e+12,0,107,2784272,-3,"0"
"12-002","YA","A",109,2,"variable","high","1","2","1",7,1831,454,137,"0","0","0","2","1","2","1","2","1",7,1,1.6499e+12,1.6499e+12,1.6499e+12,1.6499e+12,1.6499e+12,1.6499e+12,1.6499e+12,1.65e+12,0,108,2794696,3,"0"
"12-002","YA","A",110,2,"variable","low","2","3","2",4,1835,555,141,"0","0","0","4","3","2","1","2","1",6,4,1.6499e+12,1.6499e+12,1.6499e+12,1.6499e+12,1.6499e+12,1.6499e+12,1.6499e+12,1.65e+12,0,109,2804521,-1,"0"
"12-002","YA","A",111,2,"variable","low","1","2","1",4,1839,828,462,"0","0","0","1","2","2","1","2","1",4,8,1.6499e+12,1.6499e+12,1.6499e+12,1.6499e+12,1.6499e+12,1.6499e+12,1.6499e+12,1.65e+12,0,110,2814342,-2,"0"
"12-002","YA","A",112,2,"variable","high","1","1","2",7,1874,686,545,"0","0","0","1","2","2","1","2","1",7,7,1.6499e+12,1.6499e+12,1.6499e+12,1.6499e+12,1.6499e+12,1.6499e+12,1.6499e+12,1.65e+12,0,111,2824764,0,"0"
"12-002","YA","A",113,2,"variable","low","1","1","2",6,1880,767,107,"0","0","0","1","2","2","1","2","1",6,6,1.6499e+12,1.6499e+12,1.6499e+12,1.6499e+12,1.6499e+12,1.6499e+12,1.6499e+12,1.65e+12,0,112,2834986,0,"0"
"12-002","YA","A",114,2,"variable","low","2","3","2",5,1885,762,549,"0","0","0","3","4","2","1","2","1",6,5,1.6499e+12,1.6499e+12,1.6499e+12,1.6499e+12,1.6499e+12,1.6499e+12,1.6499e+12,1.65e+12,0,113,2845007,-0.5,"0"
"12-002","YA","A",115,2,"variable","high","1","1","2",3,1900,580,15,"0","0","0","1","2","2","1","2","1",8,3,1.6499e+12,1.6499e+12,1.6499e+12,1.6499e+12,1.6499e+12,1.6499e+12,1.6499e+12,1.65e+12,0,114,2854629,-2.5,"0"
"12-002","YA","A",116,2,"variable","low","1","2","1",7,1907,536,51,"0","0","0","2","1","2","1","2","1",7,3,1.6499e+12,1.6499e+12,1.6499e+12,1.6499e+12,1.6499e+12,1.6499e+12,1.6499e+12,1.65e+12,0,115,2865051,2,"0"
"12-002","YA","A",117,2,"variable","low","2","4","1",8,1915,738,180,"0","0","0","4","3","2","1","2","1",8,4,1.6499e+12,1.6499e+12,1.6499e+12,1.6499e+12,1.6499e+12,1.6499e+12,1.6499e+12,1.65e+12,0,116,2875678,2,"0"
"12-002","YA","A",118,2,"variable","low","1","2","2",4,1919,958,130,"0","0","0","1","2","1","2","2","1",7,4,1.6499e+12,1.6499e+12,1.6499e+12,1.6499e+12,1.6499e+12,1.6499e+12,1.6499e+12,1.65e+12,0,117,2885497,-1.5,"1"
"12-002","YA","A",119,2,"variable","low","2","4","1",6,1925,1380,591,"0","0","0","3","4","1","2","2","1",6,1,1.6499e+12,1.6499e+12,1.6499e+12,1.6499e+12,1.6499e+12,1.6499e+12,1.6499e+12,1.65e+12,0,118,2895720,2.5,"0"
"12-002","YA","A",120,2,"variable","low","1","1","1",7,1932,622,296,"0","0","0","1","2","1","2","2","1",7,1,1.6499e+12,1.6499e+12,1.6499e+12,1.6499e+12,1.6499e+12,1.6499e+12,1.6499e+12,1.65e+12,0,119,2906144,3,"0"
"12-002","YA","A",121,2,"variable","low","2","4","1",7,1939,1092,24,"0","0","0","3","4","1","2","2","1",7,3,1.6499e+12,1.6499e+12,1.6499e+12,1.6499e+12,1.6499e+12,1.6499e+12,1.6499e+12,1.65e+12,0,120,2916567,2,"0"
"12-002","YA","A",122,2,"variable","high","1","1","1",9,1984,957,583,"0","0","0","2","1","1","2","2","1",9,3,1.6499e+12,1.6499e+12,1.6499e+12,1.6499e+12,1.6499e+12,1.6499e+12,1.6499e+12,1.65e+12,0,121,2927395,3,"0"
"12-002","YA","A",123,2,"variable","high","2","4","1",8,2024,689,196,"0","0","0","3","4","1","2","2","1",8,3,1.6499e+12,1.6499e+12,1.6499e+12,1.6499e+12,1.6499e+12,1.6499e+12,1.6499e+12,1.65e+12,0,122,2938020,2.5,"0"
"12-002","YA","A",124,2,"variable","high","1","1","1",8,2064,862,375,"0","0","0","1","2","1","2","2","1",8,4,1.6499e+12,1.6499e+12,1.6499e+12,1.6499e+12,1.6499e+12,1.6499e+12,1.6499e+12,1.65e+12,0,123,2948651,2,"0"
"12-002","YA","A",125,2,"variable","high","1","1","1",6,2094,739,453,"0","0","0","2","1","1","2","2","1",6,3,1.6499e+12,1.6499e+12,1.6499e+12,1.6499e+12,1.6499e+12,1.6499e+12,1.6499e+12,1.65e+12,0,124,2958876,1.5,"0"
"12-002","YA","A",126,2,"variable","high","2","4","1",7,2129,913,443,"0","0","0","4","3","1","2","2","1",7,4,1.6499e+12,1.6499e+12,1.6499e+12,1.6499e+12,1.6499e+12,1.6499e+12,1.6499e+12,1.65e+12,0,125,2969300,1.5,"0"
"12-002","YA","A",127,2,"variable","low","1","2","2",7,2136,849,300,"0","0","0","2","1","1","2","2","1",7,7,1.6499e+12,1.6499e+12,1.6499e+12,1.6499e+12,1.6499e+12,1.6499e+12,1.6499e+12,1.65e+12,0,126,2979725,0,"0"
"12-002","YA","A",128,2,"variable","high","1","2","2",6,2166,1335,792,"0","0","0","1","2","1","2","2","1",5,6,1.6499e+12,1.6499e+12,1.6499e+12,1.6499e+12,1.6499e+12,1.6499e+12,1.6499e+12,1.65e+12,0,127,2989949,0.5,"0"
"12-002","YA","A",129,2,"variable","high","1","2","2",8,2206,728,1066,"0","0","0","2","1","1","2","2","1",6,8,1.6499e+12,1.6499e+12,1.6499e+12,1.6499e+12,1.6499e+12,1.6499e+12,1.6499e+12,1.65e+12,0,128,3000578,1,"0"
"12-002","YA","A",130,2,"variable","high","2","3","2",7,2241,996,167,"0","0","0","4","3","1","2","2","1",7,7,1.6499e+12,1.6499e+12,1.6499e+12,1.6499e+12,1.6499e+12,1.6499e+12,1.6499e+12,1.65e+12,0,129,3010998,0,"0"
"12-002","YA","A",131,2,"variable","low","1","2","2",6,2247,1030,15,"0","0","0","2","1","1","2","2","1",7,6,1.6499e+12,1.6499e+12,1.6499e+12,1.6499e+12,1.6499e+12,1.6499e+12,1.6499e+12,1.65e+12,0,130,3021224,-0.5,"0"
"12-002","YA","A",132,2,"variable","high","2","4","1",8,2287,620,222,"0","0","0","3","4","2","1","2","1",8,7,1.6499e+12,1.6499e+12,1.6499e+12,1.6499e+12,1.6499e+12,1.6499e+12,1.6499e+12,1.65e+12,0,131,3031853,0.5,"0"
"12-002","YA","A",133,2,"variable","low","2","4","1",7,2294,608,329,"0","0","0","3","4","2","1","2","1",7,8,1.6499e+12,1.6499e+12,1.6499e+12,1.6499e+12,1.6499e+12,1.6499e+12,1.6499e+12,1.65e+12,0,132,3042276,-0.5,"0"
"12-002","YA","A",134,2,"variable","low","1","1","2",8,2302,1241,169,"0","0","0","1","2","2","1","2","1",7,8,1.6499e+12,1.6499e+12,1.6499e+12,1.6499e+12,1.6499e+12,1.6499e+12,1.6499e+12,1.65e+12,0,133,3052906,0.5,"1"
"12-002","YA","A",135,2,"variable","low","2","3","2",8,2310,685,497,"0","0","0","4","3","2","1","2","1",6,8,1.6499e+12,1.6499e+12,1.6499e+12,1.6499e+12,1.6499e+12,1.6499e+12,1.6499e+12,1.65e+12,0,134,3063529,1,"0"
"12-002","YA","A",136,2,"variable","low","1","1","2",5,2315,836,390,"0","0","0","1","2","2","1","2","1",5,5,1.6499e+12,1.6499e+12,1.6499e+12,1.6499e+12,1.6499e+12,1.6499e+12,1.6499e+12,1.65e+12,0,135,3073552,0,"0"
"12-002","YA","A",137,2,"variable","low","1","2","1",0,2315,556,385,"0","0","0","1","2","2","1","2","1",0,8,1.6499e+12,1.6499e+12,1.6499e+12,1.6499e+12,1.6499e+12,1.6499e+12,1.6499e+12,1.65e+12,0,136,3082571,-4,"0"
"12-002","YA","A",138,2,"variable","low","2","4","1",1,2316,1369,197,"0","0","0","4","3","2","1","2","1",1,7,1.6499e+12,1.6499e+12,1.6499e+12,1.6499e+12,1.6499e+12,1.6499e+12,1.6499e+12,1.65e+12,0,137,3091787,-3,"0"
"12-002","YA","A",139,2,"variable","high","1",NA,NA,NA,2316,NA,NA,"1","0","1","2","1","2","1","2","1",2,6,1.6499e+12,1.6499e+12,1.6499e+12,0,0,0,0,1.65e+12,0,138,3098300,NA,NA
"12-002","YA","A",140,2,"variable","high","1","1","2",5,2341,385,481,"0","0","0","2","1","2","1","2","1",0,5,1.6499e+12,1.6499e+12,1.6499e+12,1.6499e+12,1.6499e+12,1.6499e+12,1.6499e+12,1.65e+12,0,139,3108324,2.5,"0"
"12-002","YA","A",141,2,"variable","high","1","2","1",0,2341,569,36,"0","0","0","1","2","2","1","2","1",0,4,1.6499e+12,1.6499e+12,1.6499e+12,1.6499e+12,1.6499e+12,1.6499e+12,1.6499e+12,1.65e+12,0,140,3117338,-2,"0"
"12-002","YA","A",142,2,"variable","high","2","3","2",7,2376,570,364,"0","0","0","4","3","2","1","2","1",1,7,1.6499e+12,1.6499e+12,1.6499e+12,1.6499e+12,1.6499e+12,1.6499e+12,1.6499e+12,1.65e+12,0,141,3127763,3,"0"
"12-002","YA","A",143,2,"variable","high","2","4","1",1,2381,754,100,"0","0","0","4","3","2","1","2","1",1,7,1.6499e+12,1.6499e+12,1.6499e+12,1.6499e+12,1.6499e+12,1.6499e+12,1.6499e+12,1.65e+12,0,142,3136980,-3,"0"
"12-002","YA","A",144,2,"variable","low","2","4","1",2,2383,967,459,"0","0","0","3","4","2","1","2","1",2,7,1.6499e+12,1.6499e+12,1.6499e+12,1.6499e+12,1.6499e+12,1.6499e+12,1.6499e+12,1.65e+12,0,143,3146400,-2.5,"0"
"12-002","YA","A",145,2,"variable","high","2","3","1",3,2398,1060,382,"0","0","0","4","3","2","1","1","2",3,5,1.6499e+12,1.6499e+12,1.6499e+12,1.6499e+12,1.6499e+12,1.6499e+12,1.6499e+12,1.65e+12,0,144,3156021,-1,"1"
"12-002","YA","A",146,2,"variable","high","2","4","2",2,2408,700,125,"0","0","0","3","4","2","1","1","2",4,2,1.6499e+12,1.6499e+12,1.6499e+12,1.6499e+12,1.6499e+12,1.6499e+12,1.6499e+12,1.65e+12,0,145,3165444,-1,"0"
"12-002","YA","A",147,2,"variable","high","2","4","2",6,2438,1288,131,"0","0","0","3","4","2","1","1","2",0,6,1.6499e+12,1.6499e+12,1.6499e+12,1.6499e+12,1.6499e+12,1.6499e+12,1.6499e+12,1.65e+12,0,146,3175666,3,"0"
"12-002","YA","A",148,2,"variable","high","2","3","1",4,2458,579,398,"0","0","0","4","3","2","1","1","2",4,6,1.6499e+12,1.6499e+12,1.6499e+12,1.6499e+12,1.6499e+12,1.6499e+12,1.6499e+12,1.65e+12,0,147,3185484,-1,"0"
"12-002","YA","A",149,2,"variable","low","2","4","2",6,2464,633,394,"0","0","0","3","4","2","1","1","2",6,6,1.6499e+12,1.6499e+12,1.6499e+12,1.6499e+12,1.6499e+12,1.6499e+12,1.6499e+12,1.65e+12,0,148,3195706,0,"0"
"12-002","YA","A",150,2,"variable","low","2","3","1",2,2466,355,29,"0","0","0","4","3","2","1","1","2",2,8,1.6499e+12,1.6499e+12,1.6499e+12,1.6499e+12,1.6499e+12,1.6499e+12,1.6499e+12,1.65e+12,0,149,3205122,-3,"0"
"12-002","YA","A",151,2,"variable","high","1","2","1",1,2471,875,77,"0","0","0","1","2","2","1","1","2",1,8,1.6499e+12,1.6499e+12,1.6499e+12,1.6499e+12,1.6499e+12,1.6499e+12,1.6499e+12,1.65e+12,0,150,3214338,-3.5,"0"
"12-002","YA","A",152,2,"variable","high","2","4","1",0,2471,950,844,"0","0","0","3","4","2","1","2","1",0,8,1.6499e+12,1.6499e+12,1.6499e+12,1.6499e+12,1.6499e+12,1.6499e+12,1.6499e+12,1.65e+12,0,151,3223356,-4,"1"
"12-002","YA","A",153,2,"variable","high","2","3","2",7,2506,913,517,"0","0","0","3","4","2","1","2","1",0,7,1.6499e+12,1.6499e+12,1.6499e+12,1.6499e+12,1.6499e+12,1.6499e+12,1.6499e+12,1.65e+12,0,152,3233777,3.5,"0"
"12-002","YA","A",154,2,"variable","high","2","3","2",7,2541,676,327,"0","0","0","4","3","2","1","2","1",3,7,1.6499e+12,1.6499e+12,1.6499e+12,1.6499e+12,1.6499e+12,1.6499e+12,1.6499e+12,1.65e+12,0,153,3244206,2,"0"
"12-002","YA","A",155,2,"variable","low","2","3","2",8,2549,542,104,"0","0","0","4","3","2","1","2","1",4,8,1.6499e+12,1.6499e+12,1.6499e+12,1.6499e+12,1.6499e+12,1.6499e+12,1.6499e+12,1.65e+12,0,154,3254834,2,"0"
"12-002","YA","A",156,2,"variable","low","2","4","1",4,2553,539,141,"0","0","0","3","4","2","1","2","1",4,8,1.6499e+12,1.6499e+12,1.6499e+12,1.6499e+12,1.6499e+12,1.6499e+12,1.6499e+12,1.65e+12,0,155,3264654,-2,"0"
"12-002","YA","A",157,2,"variable","low","1","1","2",8,2561,975,82,"0","0","0","1","2","2","1","2","1",6,8,1.6499e+12,1.6499e+12,1.6499e+12,1.6499e+12,1.6499e+12,1.6499e+12,1.6499e+12,1.65e+12,0,156,3275278,1,"0"
"12-002","YA","A",158,2,"variable","low","1","1","2",8,2569,535,961,"0","0","0","1","2","2","1","2","1",4,8,1.6499e+12,1.6499e+12,1.6499e+12,1.6499e+12,1.6499e+12,1.6499e+12,1.6499e+12,1.65e+12,0,157,3285904,2,"0"
"12-002","YA","A",159,2,"variable","high","1","1","2",5,2594,681,316,"0","0","0","1","2","2","1","2","1",4,5,1.6499e+12,1.6499e+12,1.6499e+12,1.6499e+12,1.6499e+12,1.6499e+12,1.6499e+12,1.65e+12,0,158,3295928,0.5,"0"
"12-002","YA","A",160,2,"variable","low","1","1","2",5,2599,803,23,"0","0","0","2","1","2","1","2","1",8,5,1.6499e+12,1.6499e+12,1.6499e+12,1.6499e+12,1.6499e+12,1.6499e+12,1.6499e+12,1.65e+12,0,159,3305950,-1.5,"0"
"12-002","YA","A",161,3,"stable","low","2",NA,NA,NA,2599,NA,NA,"1","0","1","4","3","2","1","2","1",6,6,1.6499e+12,1.6499e+12,1.6499e+12,0,0,0,0,1.65e+12,0,160,3413242,NA,"0"
"12-002","YA","A",162,3,"stable","low","1","1","2",NA,2599,315,NA,"0","1","1","2","1","2","1","2","1",6,7,1.6499e+12,1.6499e+12,1.6499e+12,1.6499e+12,1.6499e+12,0,0,1.65e+12,0,161,3421759,NA,"0"
"12-002","YA","A",163,3,"stable","low","1","2","1",8,2607,414,16,"0","0","0","1","2","2","1","2","1",8,7,1.6499e+12,1.6499e+12,1.6499e+12,1.6499e+12,1.6499e+12,1.6499e+12,1.6499e+12,1.65e+12,0,162,3432387,0.5,"0"
"12-002","YA","A",164,3,"stable","high","1","2","1",7,2642,250,84,"0","0","0","1","2","2","1","2","1",7,4,1.6499e+12,1.6499e+12,1.6499e+12,1.6499e+12,1.6499e+12,1.6499e+12,1.6499e+12,1.65e+12,0,163,3442814,1.5,"0"
"12-002","YA","A",165,3,"stable","high","2","3","2",8,2682,397,62,"0","0","0","4","3","2","1","2","1",9,8,1.6499e+12,1.6499e+12,1.6499e+12,1.6499e+12,1.6499e+12,1.6499e+12,1.6499e+12,1.65e+12,0,164,3453443,-0.5,"0"
"12-002","YA","A",166,3,"stable","low","2","3","2",5,2687,402,477,"0","0","0","4","3","2","1","2","1",7,5,1.6499e+12,1.6499e+12,1.6499e+12,1.6499e+12,1.6499e+12,1.6499e+12,1.6499e+12,1.65e+12,0,165,3463462,-1,"0"
"12-002","YA","A",167,3,"stable","high","2","4","1",6,2717,470,63,"0","0","0","4","3","2","1","2","1",6,6,1.6499e+12,1.6499e+12,1.6499e+12,1.6499e+12,1.6499e+12,1.6499e+12,1.6499e+12,1.65e+12,0,166,3473687,0,"0"
"12-002","YA","A",168,3,"stable","high","2","4","1",6,2747,676,189,"0","0","0","3","4","2","1","2","1",6,8,1.6499e+12,1.6499e+12,1.6499e+12,1.6499e+12,1.6499e+12,1.6499e+12,1.6499e+12,1.65e+12,0,167,3483915,-1,"0"
"12-002","YA","A",169,3,"stable","high","2","4","1",8,2787,641,145,"0","0","0","3","4","2","1","2","1",8,7,1.6499e+12,1.6499e+12,1.6499e+12,1.6499e+12,1.6499e+12,1.6499e+12,1.6499e+12,1.65e+12,0,168,3494545,0.5,"0"
"12-002","YA","A",170,3,"stable","low","1","2","1",5,2792,539,372,"0","0","0","1","2","2","1","2","1",5,8,1.6499e+12,1.6499e+12,1.6499e+12,1.6499e+12,1.6499e+12,1.6499e+12,1.6499e+12,1.65e+12,0,169,3504572,-1.5,"0"
"12-002","YA","A",171,3,"stable","high","2","3","2",9,2837,509,391,"0","0","0","3","4","2","1","2","1",3,9,1.6499e+12,1.6499e+12,1.6499e+12,1.6499e+12,1.6499e+12,1.6499e+12,1.6499e+12,1.65e+12,0,170,3515406,3,"0"
"12-002","YA","A",172,3,"stable","low","2","3","2",8,2845,886,304,"0","0","0","3","4","2","1","2","1",5,8,1.6499e+12,1.6499e+12,1.6499e+12,1.6499e+12,1.6499e+12,1.6499e+12,1.6499e+12,1.65e+12,0,171,3526031,1.5,"0"
"12-002","YA","A",173,3,"stable","low","1","2","1",6,2851,989,384,"0","0","0","1","2","2","1","2","1",6,4,1.6499e+12,1.6499e+12,1.6499e+12,1.6499e+12,1.6499e+12,1.6499e+12,1.6499e+12,1.65e+12,0,172,3536252,1,"0"
"12-002","YA","A",174,3,"stable","high","1","1","2",2,2861,512,235,"0","0","0","2","1","2","1","2","1",4,2,1.6499e+12,1.6499e+12,1.6499e+12,1.6499e+12,1.6499e+12,1.6499e+12,1.6499e+12,1.65e+12,0,173,3545669,-1,"0"
"12-002","YA","A",175,3,"stable","high","1","1","2",3,2876,598,248,"0","0","0","2","1","2","1","2","1",4,3,1.6499e+12,1.6499e+12,1.6499e+12,1.6499e+12,1.6499e+12,1.6499e+12,1.6499e+12,1.65e+12,0,174,3555288,-0.5,"0"
"12-002","YA","A",176,3,"stable","high","1","2","1",4,2896,475,367,"0","0","0","1","2","2","1","2","1",4,2,1.6499e+12,1.6499e+12,1.6499e+12,1.6499e+12,1.6499e+12,1.6499e+12,1.6499e+12,1.65e+12,0,175,3565107,1,"0"
"12-002","YA","A",177,3,"stable","high","1","2","1",5,2921,345,354,"0","0","0","2","1","2","1","2","1",5,4,1.6499e+12,1.6499e+12,1.6499e+12,1.6499e+12,1.6499e+12,1.6499e+12,1.6499e+12,1.65e+12,0,176,3575129,0.5,"0"
"12-002","YA","A",178,3,"stable","high","2","3","2",4,2941,379,37,"0","0","0","4","3","2","1","2","1",3,4,1.6499e+12,1.6499e+12,1.6499e+12,1.6499e+12,1.6499e+12,1.6499e+12,1.6499e+12,1.65e+12,0,177,3584949,0.5,"0"
"12-002","YA","A",179,3,"stable","high","2","4","1",1,2946,447,136,"0","0","0","3","4","2","1","2","1",1,2,1.6499e+12,1.6499e+12,1.6499e+12,1.6499e+12,1.6499e+12,1.6499e+12,1.6499e+12,1.65e+12,0,178,3594166,-0.5,"0"
"12-002","YA","A",180,3,"stable","low","1","1","2",5,2951,812,232,"0","0","0","2","1","2","1","2","1",1,5,1.6499e+12,1.6499e+12,1.6499e+12,1.6499e+12,1.6499e+12,1.6499e+12,1.6499e+12,1.65e+12,0,179,3604192,2,"0"
"12-002","YA","A",181,3,"stable","low","1","2","1",3,2954,948,381,"0","0","0","2","1","2","1","2","1",3,4,1.6499e+12,1.6499e+12,1.6499e+12,1.6499e+12,1.6499e+12,1.6499e+12,1.6499e+12,1.65e+12,0,180,3613813,-0.5,"0"
"12-002","YA","A",182,3,"stable","low","1","2","1",5,2959,422,17,"0","0","0","1","2","2","1","2","1",5,2,1.6499e+12,1.6499e+12,1.6499e+12,1.6499e+12,1.6499e+12,1.6499e+12,1.6499e+12,1.65e+12,0,181,3623835,1.5,"0"
"12-002","YA","A",183,3,"stable","low","1","1","2",2,2961,721,74,"0","0","0","2","1","2","1","2","1",8,2,1.6499e+12,1.6499e+12,1.6499e+12,1.6499e+12,1.6499e+12,1.6499e+12,1.6499e+12,1.65e+12,0,182,3633256,-3,"0"
"12-002","YA","A",184,3,"stable","low","2","4","1",6,2967,523,334,"0","0","0","3","4","2","1","2","1",6,1,1.6499e+12,1.6499e+12,1.6499e+12,1.6499e+12,1.6499e+12,1.6499e+12,1.6499e+12,1.65e+12,0,183,3643481,2.5,"0"
"12-002","YA","A",185,3,"stable","low","2","4","1",8,2975,587,46,"0","0","0","4","3","2","1","2","1",8,1,1.6499e+12,1.6499e+12,1.6499e+12,1.6499e+12,1.6499e+12,1.6499e+12,1.6499e+12,1.65e+12,0,184,3654105,3.5,"0"
"12-002","YA","A",186,3,"stable","low","2","4","1",7,2982,450,339,"0","0","0","3","4","2","1","2","1",7,3,1.6499e+12,1.6499e+12,1.6499e+12,1.6499e+12,1.6499e+12,1.6499e+12,1.6499e+12,1.65e+12,0,185,3664533,2,"0"
"12-002","YA","A",187,3,"stable","high","2","4","1",6,3012,614,583,"0","0","0","3","4","2","1","2","1",6,2,1.6499e+12,1.6499e+12,1.6499e+12,1.6499e+12,1.6499e+12,1.6499e+12,1.6499e+12,1.65e+12,0,186,3674760,2,"0"
"12-002","YA","A",188,3,"stable","low","2","4","1",7,3019,455,1417,"0","0","0","3","4","2","1","2","1",7,0,1.6499e+12,1.6499e+12,1.6499e+12,1.6499e+12,1.6499e+12,1.6499e+12,1.6499e+12,1.65e+12,0,187,3685191,3.5,"0"
"12-002","YA","A",189,3,"stable","high","1","1","2",1,3024,692,447,"0","0","0","2","1","2","1","2","1",7,1,1.6499e+12,1.6499e+12,1.6499e+12,1.6499e+12,1.6499e+12,1.6499e+12,1.6499e+12,1.65e+12,0,188,3694407,-3,"0"
"12-002","YA","A",190,3,"stable","high","1","2","1",5,3049,604,373,"0","0","0","2","1","2","1","2","1",5,0,1.6499e+12,1.6499e+12,1.6499e+12,1.6499e+12,1.6499e+12,1.6499e+12,1.6499e+12,1.65e+12,0,189,3704432,2.5,"0"
"12-002","YA","A",191,3,"stable","low","1","2","1",7,3056,626,434,"0","0","0","2","1","2","1","2","1",7,0,1.6499e+12,1.6499e+12,1.6499e+12,1.6499e+12,1.6499e+12,1.6499e+12,1.6499e+12,1.65e+12,0,190,3714863,3.5,"0"
"12-002","YA","A",192,3,"stable","low","2","4","1",7,3063,843,468,"0","0","0","3","4","2","1","2","1",7,5,1.6499e+12,1.6499e+12,1.6499e+12,1.6499e+12,1.6499e+12,1.6499e+12,1.6499e+12,1.65e+12,0,191,3725293,1,"0"
"12-002","YA","A",193,3,"stable","high","1","2","1",7,3098,567,506,"0","0","0","1","2","2","1","2","1",7,3,1.6499e+12,1.6499e+12,1.6499e+12,1.6499e+12,1.6499e+12,1.6499e+12,1.6499e+12,1.65e+12,0,192,3735716,2,"0"
"12-002","YA","A",194,3,"stable","low","1","2","1",9,3107,599,145,"0","0","0","1","2","2","1","2","1",9,5,1.6499e+12,1.6499e+12,1.6499e+12,1.6499e+12,1.6499e+12,1.6499e+12,1.6499e+12,1.65e+12,0,193,3746544,2,"0"
"12-002","YA","A",195,3,"stable","high","1","2","1",8,3147,498,98,"0","0","0","1","2","2","1","2","1",8,8,1.6499e+12,1.6499e+12,1.6499e+12,1.6499e+12,1.6499e+12,1.6499e+12,1.6499e+12,1.65e+12,0,194,3757175,0,"0"
"12-002","YA","A",196,3,"stable","low","2","4","1",6,3153,636,144,"0","0","0","3","4","2","1","2","1",6,5,1.6499e+12,1.6499e+12,1.6499e+12,1.6499e+12,1.6499e+12,1.6499e+12,1.6499e+12,1.65e+12,0,195,3767397,0.5,"0"
"12-002","YA","A",197,3,"stable","low","1","1","2",4,3157,742,425,"0","0","0","2","1","2","1","2","1",5,4,1.6499e+12,1.6499e+12,1.6499e+12,1.6499e+12,1.6499e+12,1.6499e+12,1.6499e+12,1.65e+12,0,196,3777218,-0.5,"0"
"12-002","YA","A",198,3,"stable","low","1","2","1",7,3164,634,646,"0","0","0","2","1","2","1","2","1",7,3,1.6499e+12,1.6499e+12,1.6499e+12,1.6499e+12,1.6499e+12,1.6499e+12,1.6499e+12,1.65e+12,0,197,3787640,2,"0"
"12-002","YA","A",199,3,"stable","high","2","4","1",8,3204,531,251,"0","0","0","4","3","2","1","2","1",8,2,1.6499e+12,1.6499e+12,1.6499e+12,1.6499e+12,1.6499e+12,1.6499e+12,1.6499e+12,1.65e+12,0,198,3798269,3,"0"
"12-002","YA","A",200,3,"stable","high","1","2","1",6,3234,494,383,"0","0","0","2","1","2","1","2","1",6,2,1.6499e+12,1.6499e+12,1.6499e+12,1.6499e+12,1.6499e+12,1.6499e+12,1.6499e+12,1.65e+12,0,199,3808495,2,"0"
"12-002","YA","A",201,3,"stable","high","1","2","1",4,3254,621,357,"0","0","0","1","2","2","1","2","1",4,0,1.6499e+12,1.6499e+12,1.6499e+12,1.6499e+12,1.6499e+12,1.6499e+12,1.6499e+12,1.65e+12,0,200,3818318,2,"0"
"12-002","YA","A",202,3,"stable","high","2","3","2",3,3269,446,295,"0","0","0","4","3","2","1","2","1",4,3,1.6499e+12,1.6499e+12,1.6499e+12,1.6499e+12,1.6499e+12,1.6499e+12,1.6499e+12,1.65e+12,0,201,3827939,-0.5,"0"
"12-002","YA","A",203,3,"stable","high","2","3","2",3,3284,473,404,"0","0","0","4","3","2","1","2","1",5,3,1.6499e+12,1.6499e+12,1.6499e+12,1.6499e+12,1.6499e+12,1.6499e+12,1.6499e+12,1.65e+12,0,202,3837558,-1,"0"
"12-002","YA","A",204,3,"stable","high","2","4","1",6,3314,454,455,"0","0","0","3","4","2","1","2","1",6,4,1.6499e+12,1.6499e+12,1.6499e+12,1.6499e+12,1.6499e+12,1.6499e+12,1.6499e+12,1.65e+12,0,203,3847785,1,"0"
"12-002","YA","A",205,3,"stable","high","1","2","1",3,3329,579,20,"0","0","0","1","2","2","1","2","1",3,3,1.6499e+12,1.6499e+12,1.6499e+12,1.6499e+12,1.6499e+12,1.6499e+12,1.6499e+12,1.65e+12,0,204,3857408,0,"0"
"12-002","YA","A",206,3,"stable","low","2","3","2",3,3332,789,712,"0","0","0","4","3","2","1","2","1",0,3,1.6499e+12,1.6499e+12,1.6499e+12,1.6499e+12,1.6499e+12,1.6499e+12,1.6499e+12,1.65e+12,0,205,3867026,1.5,"0"
"12-002","YA","A",207,3,"stable","high","1","2","1",4,3352,626,677,"0","0","0","1","2","2","1","2","1",4,6,1.6499e+12,1.6499e+12,1.6499e+12,1.6499e+12,1.6499e+12,1.6499e+12,1.6499e+12,1.65e+12,0,206,3876846,-1,"0"
"12-002","YA","A",208,3,"stable","low","2","3","2",6,3358,398,64,"0","0","0","4","3","2","1","2","1",3,6,1.6499e+12,1.6499e+12,1.6499e+12,1.6499e+12,1.6499e+12,1.6499e+12,1.6499e+12,1.65e+12,0,207,3887072,1.5,"0"
"12-002","YA","A",209,3,"stable","low","1","2","1",6,3364,484,30,"0","0","0","1","2","2","1","2","1",6,5,1.6499e+12,1.6499e+12,1.6499e+12,1.6499e+12,1.6499e+12,1.6499e+12,1.6499e+12,1.65e+12,0,208,3897293,0.5,"0"
"12-002","YA","A",210,3,"stable","high","2","3","2",8,3404,685,528,"0","0","0","4","3","2","1","2","1",7,8,1.6499e+12,1.6499e+12,1.6499e+12,1.6499e+12,1.6499e+12,1.6499e+12,1.6499e+12,1.65e+12,0,209,3907920,0.5,"0"
"12-002","YA","A",211,3,"stable","low","2","3","2",7,3411,924,94,"0","0","0","3","4","2","1","2","1",9,7,1.6499e+12,1.6499e+12,1.6499e+12,1.6499e+12,1.6499e+12,1.6499e+12,1.6499e+12,1.65e+12,0,210,3918347,-1,"0"
"12-002","YA","A",212,3,"stable","high","2","3","2",9,3456,480,114,"0","0","0","4","3","2","1","2","1",7,9,1.6499e+12,1.6499e+12,1.6499e+12,1.6499e+12,1.6499e+12,1.6499e+12,1.6499e+12,1.65e+12,0,211,3929175,1,"0"
"12-002","YA","A",213,3,"stable","low","2","3","2",9,3465,571,526,"0","0","0","4","3","2","1","2","1",8,9,1.6499e+12,1.6499e+12,1.6499e+12,1.6499e+12,1.6499e+12,1.6499e+12,1.6499e+12,1.65e+12,0,212,3940006,0.5,"0"
"12-002","YA","A",214,3,"stable","high","2","3","2",9,3510,734,185,"0","0","0","3","4","2","1","2","1",7,9,1.6499e+12,1.6499e+12,1.6499e+12,1.6499e+12,1.6499e+12,1.6499e+12,1.6499e+12,1.65e+12,0,213,3950828,1,"0"
"12-002","YA","A",215,3,"stable","low","1","1","2",8,3518,648,299,"0","0","0","2","1","2","1","2","1",7,8,1.6499e+12,1.6499e+12,1.6499e+12,1.6499e+12,1.6499e+12,1.6499e+12,1.6499e+12,1.65e+12,0,214,3961455,0.5,"0"
"12-002","YA","A",216,3,"stable","high","2","3","2",7,3553,580,367,"0","0","0","3","4","2","1","2","1",8,7,1.6499e+12,1.6499e+12,1.6499e+12,1.6499e+12,1.6499e+12,1.6499e+12,1.6499e+12,1.65e+12,0,215,3971881,-0.5,"0"
"12-002","YA","A",217,3,"stable","low","2","3","2",3,3556,1033,378,"0","0","0","3","4","2","1","2","1",7,3,1.6499e+12,1.6499e+12,1.6499e+12,1.6499e+12,1.6499e+12,1.6499e+12,1.6499e+12,1.65e+12,0,216,3981503,-2,"0"
"12-002","YA","A",218,3,"stable","low","1","2","1",8,3564,508,421,"0","0","0","1","2","2","1","2","1",8,6,1.6499e+12,1.6499e+12,1.6499e+12,1.6499e+12,1.6499e+12,1.6499e+12,1.6499e+12,1.65e+12,0,217,3992132,1,"0"
"12-002","YA","A",219,3,"stable","low","2","4","1",8,3572,815,433,"0","0","0","4","3","2","1","2","1",8,8,1.6499e+12,1.6499e+12,1.6499e+12,1.6499e+12,1.6499e+12,1.6499e+12,1.6499e+12,1.65e+12,0,218,4002761,0,"0"
"12-002","YA","A",220,3,"stable","high","2","4","1",8,3612,761,378,"0","0","0","4","3","2","1","2","1",8,7,1.6499e+12,1.6499e+12,1.6499e+12,1.6499e+12,1.6499e+12,1.6499e+12,1.6499e+12,1.65e+12,0,219,4013391,0.5,"0"
"12-002","YA","A",221,3,"stable","high","2","4","1",7,3647,837,535,"0","0","0","4","3","2","1","2","1",7,6,1.6499e+12,1.6499e+12,1.6499e+12,1.6499e+12,1.6499e+12,1.6499e+12,1.6499e+12,1.65e+12,0,220,4023815,0.5,"0"
"12-002","YA","A",222,3,"stable","low","2","4","1",7,3654,748,302,"0","0","0","4","3","2","1","2","1",7,4,1.6499e+12,1.6499e+12,1.6499e+12,1.6499e+12,1.6499e+12,1.6499e+12,1.6499e+12,1.65e+12,0,221,4034241,1.5,"0"
"12-002","YA","A",223,3,"stable","high","1","1","2",4,3674,624,411,"0","0","0","2","1","2","1","2","1",6,4,1.6499e+12,1.6499e+12,1.6499e+12,1.6499e+12,1.6499e+12,1.6499e+12,1.6499e+12,1.65e+12,0,222,4044064,-1,"0"
"12-002","YA","A",224,3,"stable","high","1","2","1",7,3709,546,308,"0","0","0","2","1","2","1","2","1",7,4,1.6499e+12,1.6499e+12,1.6499e+12,1.6499e+12,1.6499e+12,1.6499e+12,1.6499e+12,1.65e+12,0,223,4054491,1.5,"0"
"12-002","YA","A",225,3,"stable","low","2","4","1",9,3718,542,343,"0","0","0","4","3","2","1","2","1",9,6,1.6499e+12,1.6499e+12,1.6499e+12,1.6499e+12,1.6499e+12,1.6499e+12,1.6499e+12,1.65e+12,0,224,4065323,1.5,"0"
"12-002","YA","A",226,3,"stable","low","2","4","1",8,3726,576,810,"0","0","0","3","4","2","1","2","1",8,5,1.6499e+12,1.6499e+12,1.6499e+12,1.6499e+12,1.6499e+12,1.6499e+12,1.6499e+12,1.65e+12,0,225,4075950,1.5,"0"
"12-002","YA","A",227,3,"stable","low","1","2","1",7,3733,612,420,"0","0","0","1","2","2","1","2","1",7,5,1.6499e+12,1.6499e+12,1.6499e+12,1.6499e+12,1.6499e+12,1.6499e+12,1.6499e+12,1.65e+12,0,226,4086379,1,"0"
"12-002","YA","A",228,3,"stable","low","2","4","1",5,3738,872,473,"0","0","0","4","3","2","1","2","1",5,7,1.6499e+12,1.6499e+12,1.6499e+12,1.6499e+12,1.6499e+12,1.6499e+12,1.6499e+12,1.65e+12,0,227,4096402,-1,"0"
"12-002","YA","A",229,3,"stable","high","1","2","1",4,3758,680,584,"0","0","0","1","2","2","1","2","1",4,5,1.6499e+12,1.6499e+12,1.6499e+12,1.6499e+12,1.6499e+12,1.6499e+12,1.6499e+12,1.65e+12,0,228,4106228,-0.5,"0"
"12-002","YA","A",230,3,"stable","low","1","1","2",5,3763,839,378,"0","0","0","1","2","2","1","2","1",2,5,1.6499e+12,1.6499e+12,1.6499e+12,1.6499e+12,1.6499e+12,1.6499e+12,1.6499e+12,1.65e+12,0,229,4116251,1.5,"0"
"12-002","YA","A",231,3,"stable","low","1","1","2",3,3766,568,402,"0","0","0","2","1","2","1","2","1",2,3,1.6499e+12,1.6499e+12,1.6499e+12,1.6499e+12,1.6499e+12,1.6499e+12,1.6499e+12,1.65e+12,0,230,4125871,0.5,"0"
"12-002","YA","A",232,3,"stable","high","1","1","2",2,3776,787,510,"0","0","0","1","2","2","1","2","1",1,2,1.6499e+12,1.6499e+12,1.6499e+12,1.6499e+12,1.6499e+12,1.6499e+12,1.6499e+12,1.65e+12,0,231,4135289,0.5,"0"
"12-002","YA","A",233,3,"stable","high","1","2","1",2,3786,617,429,"0","0","0","2","1","2","1","2","1",2,1,1.6499e+12,1.6499e+12,1.6499e+12,1.6499e+12,1.6499e+12,1.6499e+12,1.6499e+12,1.65e+12,0,232,4144707,0.5,"0"
"12-002","YA","A",234,3,"stable","high","1","2","1",4,3806,655,256,"0","0","0","2","1","2","1","2","1",4,3,1.6499e+12,1.6499e+12,1.6499e+12,1.6499e+12,1.6499e+12,1.6499e+12,1.6499e+12,1.65e+12,0,233,4154531,0.5,"0"
"12-002","YA","A",235,3,"stable","high","2","4","1",5,3831,1064,667,"0","0","0","3","4","2","1","2","1",5,0,1.6499e+12,1.6499e+12,1.6499e+12,1.6499e+12,1.6499e+12,1.6499e+12,1.6499e+12,1.65e+12,0,234,4164554,2.5,"0"
"12-002","YA","A",236,3,"stable","high","1","2","1",6,3861,673,318,"0","0","0","1","2","2","1","2","1",6,2,1.6499e+12,1.6499e+12,1.6499e+12,1.6499e+12,1.6499e+12,1.6499e+12,1.6499e+12,1.65e+12,0,235,4174775,2,"0"
"12-002","YA","A",237,3,"stable","low","2","4","1",9,3870,460,485,"0","0","0","3","4","2","1","2","1",9,4,1.6499e+12,1.6499e+12,1.6499e+12,1.6499e+12,1.6499e+12,1.6499e+12,1.6499e+12,1.65e+12,0,236,4185603,2.5,"0"
"12-002","YA","A",238,3,"stable","low","1","2","1",7,3877,665,442,"0","0","0","1","2","2","1","2","1",7,3,1.6499e+12,1.6499e+12,1.6499e+12,1.6499e+12,1.6499e+12,1.6499e+12,1.6499e+12,1.65e+12,0,237,4196028,2,"0"
"12-002","YA","A",239,3,"stable","low","1","2","1",6,3883,551,521,"0","0","0","2","1","2","1","2","1",6,1,1.6499e+12,1.6499e+12,1.6499e+12,1.6499e+12,1.6499e+12,1.6499e+12,1.6499e+12,1.65e+12,0,238,4206254,2.5,"0"
"12-002","YA","A",240,3,"stable","high","2","4","1",6,3913,461,437,"0","0","0","3","4","2","1","2","1",6,1,1.6499e+12,1.6499e+12,1.6499e+12,1.6499e+12,1.6499e+12,1.6499e+12,1.6499e+12,1.65e+12,0,239,4216481,2.5,"0"
"12-002","YA","A",241,4,"variable","high","2","4","2",NA,3913,857,NA,"0","1","1","3","4","2","1","1","2",8,3,1.6499e+12,1.6499e+12,1.6499e+12,1.6499e+12,1.6499e+12,0,0,1.65e+12,0,240,4235518,NA,"1"
"12-002","YA","A",242,4,"variable","low","1","2","1",8,3921,475,350,"0","0","0","1","2","2","1","1","2",8,5,1.6499e+12,1.6499e+12,1.6499e+12,1.6499e+12,1.6499e+12,1.6499e+12,1.6499e+12,1.65e+12,0,241,4246147,1.5,"0"
"12-002","YA","A",243,4,"variable","high","1","1","2",7,3956,567,258,"0","0","0","2","1","2","1","1","2",7,7,1.6499e+12,1.6499e+12,1.6499e+12,1.6499e+12,1.6499e+12,1.6499e+12,1.6499e+12,1.65e+12,0,242,4256575,0,"0"
"12-002","YA","A",244,4,"variable","low","1","1","2",6,3962,587,621,"0","0","0","2","1","2","1","1","2",6,6,1.6499e+12,1.6499e+12,1.6499e+12,1.6499e+12,1.6499e+12,1.6499e+12,1.6499e+12,1.65e+12,0,243,4266801,0,"0"
"12-002","YA","A",245,4,"variable","low","1","2","1",7,3969,561,298,"0","0","0","1","2","2","1","1","2",7,7,1.6499e+12,1.6499e+12,1.6499e+12,1.6499e+12,1.6499e+12,1.6499e+12,1.6499e+12,1.65e+12,0,244,4277228,0,"0"
"12-002","YA","A",246,4,"variable","high","1","2","1",4,3989,589,374,"0","0","0","1","2","2","1","1","2",4,7,1.6499e+12,1.6499e+12,1.6499e+12,1.6499e+12,1.6499e+12,1.6499e+12,1.6499e+12,1.65e+12,0,245,4287054,-1.5,"0"
"12-002","YA","A",247,4,"variable","high","1","1","2",4,4009,933,823,"0","0","0","2","1","2","1","1","2",3,4,1.6499e+12,1.6499e+12,1.6499e+12,1.6499e+12,1.6499e+12,1.6499e+12,1.6499e+12,1.65e+12,0,246,4296876,0.5,"0"
"12-002","YA","A",248,4,"variable","high","1","1","2",2,4019,623,559,"0","0","0","2","1","2","1","1","2",5,2,1.6499e+12,1.6499e+12,1.6499e+12,1.6499e+12,1.6499e+12,1.6499e+12,1.6499e+12,1.65e+12,0,247,4306298,-1.5,"0"
"12-002","YA","A",249,4,"variable","high","1","2","2",1,4024,569,482,"0","0","0","1","2","1","2","1","2",2,1,1.6499e+12,1.6499e+12,1.6499e+12,1.6499e+12,1.6499e+12,1.6499e+12,1.6499e+12,1.65e+12,0,248,4315518,-0.5,"1"
"12-002","YA","A",250,4,"variable","low","1","1","1",2,4026,1020,943,"0","0","0","2","1","1","2","1","2",2,0,1.6499e+12,1.6499e+12,1.6499e+12,1.6499e+12,1.6499e+12,1.6499e+12,1.6499e+12,1.65e+12,0,249,4324937,1,"0"
"12-002","YA","A",251,4,"variable","high","2","4","2",NA,4026,618,NA,"0","1","1","3","4","1","2","1","2",3,1,1.6499e+12,1.6499e+12,1.6499e+12,1.6499e+12,1.6499e+12,0,0,1.65e+12,0,250,4333453,NA,"0"
"12-002","YA","A",252,4,"variable","high","2","3","1",1,4031,550,80,"0","0","0","4","3","1","2","1","2",1,0,1.6499e+12,1.6499e+12,1.6499e+12,1.6499e+12,1.6499e+12,1.6499e+12,1.6499e+12,1.65e+12,0,251,4342671,0.5,"0"
"12-002","YA","A",253,4,"variable","high","1","2","2",0,4031,811,227,"0","0","0","1","2","1","2","1","2",0,0,1.6499e+12,1.6499e+12,1.6499e+12,1.6499e+12,1.6499e+12,1.6499e+12,1.6499e+12,1.65e+12,0,252,4351692,0,"0"
"12-002","YA","A",254,4,"variable","low","2","3","1",1,4032,967,433,"0","0","0","4","3","1","2","1","2",1,2,1.6499e+12,1.6499e+12,1.6499e+12,1.6499e+12,1.6499e+12,1.6499e+12,1.6499e+12,1.65e+12,0,253,4360910,-0.5,"0"
"12-002","YA","A",255,4,"variable","high","2","3","1",2,4042,452,126,"0","0","0","4","3","1","2","1","2",2,5,1.6499e+12,1.6499e+12,1.6499e+12,1.6499e+12,1.6499e+12,1.6499e+12,1.6499e+12,1.65e+12,0,254,4370329,-1.5,"0"
"12-002","YA","A",256,4,"variable","low","2","3","1",2,4044,505,212,"0","0","0","4","3","1","2","1","2",2,7,1.6499e+12,1.6499e+12,1.6499e+12,1.6499e+12,1.6499e+12,1.6499e+12,1.6499e+12,1.65e+12,0,255,4379747,-2.5,"0"
"12-002","YA","A",257,4,"variable","low","2","4","2",NA,4044,813,NA,"0","1","1","3","4","1","2","1","2",4,8,1.6499e+12,1.6499e+12,1.6499e+12,1.6499e+12,1.6499e+12,0,0,1.65e+12,0,256,4388265,NA,"0"
"12-002","YA","A",258,4,"variable","high","1","2","2",9,4089,431,307,"0","0","0","1","2","1","2","1","2",5,9,1.6499e+12,1.6499e+12,1.6499e+12,1.6499e+12,1.6499e+12,1.6499e+12,1.6499e+12,1.65e+12,0,257,4399095,2,"0"
"12-002","YA","A",259,4,"variable","high","2","3","1",3,4104,714,67,"0","0","0","4","3","1","2","1","2",3,7,1.6499e+12,1.6499e+12,1.6499e+12,1.6499e+12,1.6499e+12,1.6499e+12,1.6499e+12,1.65e+12,0,258,4408715,-2,"0"
"12-002","YA","A",260,4,"variable","high","1","2","2",5,4129,479,474,"0","0","0","2","1","1","2","2","1",5,5,1.6499e+12,1.6499e+12,1.6499e+12,1.6499e+12,1.6499e+12,1.6499e+12,1.6499e+12,1.65e+12,0,259,4418739,0,"0"
"12-002","YA","A",261,4,"variable","high","1","2","2",6,4159,615,408,"0","0","0","2","1","1","2","2","1",8,6,1.6499e+12,1.6499e+12,1.6499e+12,1.6499e+12,1.6499e+12,1.6499e+12,1.6499e+12,1.65e+12,0,260,4428966,-1,"0"
"12-002","YA","A",262,4,"variable","high","1","2","2",3,4174,1148,413,"0","0","0","2","1","1","2","2","1",8,3,1.6499e+12,1.6499e+12,1.6499e+12,1.6499e+12,1.6499e+12,1.6499e+12,1.6499e+12,1.65e+12,0,261,4438589,-2.5,"0"
"12-002","YA","A",263,4,"variable","high","1","1","1",9,4219,836,294,"0","0","0","1","2","1","2","2","1",9,3,1.6499e+12,1.6499e+12,1.6499e+12,1.6499e+12,1.6499e+12,1.6499e+12,1.6499e+12,1.65e+12,0,262,4449418,3,"0"
"12-002","YA","A",264,4,"variable","low","2","4","1",8,4227,1201,779,"0","0","0","3","4","1","2","2","1",8,0,1.6499e+12,1.6499e+12,1.6499e+12,1.6499e+12,1.6499e+12,1.6499e+12,1.6499e+12,1.65e+12,0,263,4460044,4,"1"
"12-002","YA","A",265,4,"variable","low","1","2","2",1,4228,510,48,"0","0","0","1","2","1","2","2","1",7,1,1.6499e+12,1.6499e+12,1.6499e+12,1.6499e+12,1.6499e+12,1.6499e+12,1.6499e+12,1.65e+12,0,264,4469261,-3,"0"
"12-002","YA","A",266,4,"variable","low","2","4","1",6,4234,1085,416,"0","0","0","3","4","1","2","2","1",6,3,1.6499e+12,1.6499e+12,1.6499e+12,1.6499e+12,1.6499e+12,1.6499e+12,1.6499e+12,1.65e+12,0,265,4479485,1.5,"0"
"12-002","YA","A",267,4,"variable","high","1","1","1",5,4259,742,248,"0","0","0","2","1","1","2","2","1",5,4,1.6499e+12,1.6499e+12,1.6499e+12,1.6499e+12,1.6499e+12,1.6499e+12,1.6499e+12,1.65e+12,0,266,4489509,0.5,"0"
"12-002","YA","A",268,4,"variable","high","1","1","1",3,4274,1005,335,"0","0","0","1","2","1","2","2","1",3,5,1.6499e+12,1.6499e+12,1.6499e+12,1.6499e+12,1.6499e+12,1.6499e+12,1.6499e+12,1.65e+12,0,267,4499130,-1,"0"
"12-002","YA","A",269,4,"variable","high","2","3","1",1,4279,607,283,"0","0","0","3","4","1","2","1","2",1,6,1.6499e+12,1.6499e+12,1.6499e+12,1.6499e+12,1.6499e+12,1.6499e+12,1.6499e+12,1.65e+12,0,268,4508348,-2.5,"1"
"12-002","YA","A",270,4,"variable","low","2","3","1",2,4281,743,185,"0","0","0","4","3","1","2","1","2",2,5,1.6499e+12,1.6499e+12,1.6499e+12,1.6499e+12,1.6499e+12,1.6499e+12,1.6499e+12,1.65e+12,0,269,4517767,-1.5,"0"
"12-002","YA","A",271,4,"variable","high","2","4","2",3,4296,1018,372,"0","0","0","3","4","1","2","1","2",4,3,1.6499e+12,1.6499e+12,1.6499e+12,1.6499e+12,1.6499e+12,1.6499e+12,1.6499e+12,1.65e+12,0,270,4527388,-0.5,"0"
"12-002","YA","A",272,4,"variable","low","1","2","2",2,4298,910,721,"0","0","0","1","2","1","2","1","2",2,2,1.6499e+12,1.6499e+12,1.6499e+12,1.6499e+12,1.6499e+12,1.6499e+12,1.6499e+12,1.65e+12,0,271,4536808,0,"0"
"12-002","YA","A",273,4,"variable","high","2","4","2",4,4318,922,548,"0","0","0","4","3","1","2","1","2",2,4,1.6499e+12,1.6499e+12,1.6499e+12,1.6499e+12,1.6499e+12,1.6499e+12,1.6499e+12,1.65e+12,0,272,4546632,1,"0"
"12-002","YA","A",274,4,"variable","low","1","1","1",1,4319,898,380,"0","0","0","2","1","1","2","1","2",1,5,1.6499e+12,1.6499e+12,1.6499e+12,1.6499e+12,1.6499e+12,1.6499e+12,1.6499e+12,1.65e+12,0,273,4555850,-2,"0"
"12-002","YA","A",275,4,"variable","high","2","3","1",6,4349,472,651,"0","0","0","3","4","1","2","1","2",6,3,1.6499e+12,1.6499e+12,1.6499e+12,1.6499e+12,1.6499e+12,1.6499e+12,1.6499e+12,1.65e+12,0,274,4566074,1.5,"0"
"12-002","YA","A",276,4,"variable","high","1","1","1",5,4374,735,474,"0","0","0","1","2","1","2","1","2",5,5,1.6499e+12,1.6499e+12,1.6499e+12,1.6499e+12,1.6499e+12,1.6499e+12,1.6499e+12,1.65e+12,0,275,4576100,0,"0"
"12-002","YA","A",277,4,"variable","low","2","3","1",4,4378,581,217,"0","0","0","3","4","1","2","1","2",4,0,1.6499e+12,1.6499e+12,1.6499e+12,1.6499e+12,1.6499e+12,1.6499e+12,1.6499e+12,1.65e+12,0,276,4585922,2,"0"
"12-002","YA","A",278,4,"variable","high","2","3","1",5,4403,657,106,"0","0","0","4","3","1","2","1","2",5,2,1.6499e+12,1.6499e+12,1.6499e+12,1.6499e+12,1.6499e+12,1.6499e+12,1.6499e+12,1.65e+12,0,277,4595948,1.5,"0"
"12-002","YA","A",279,4,"variable","high","2","3","1",7,4438,646,207,"0","0","0","3","4","1","2","1","2",7,1,1.6499e+12,1.6499e+12,1.6499e+12,1.6499e+12,1.6499e+12,1.6499e+12,1.6499e+12,1.65e+12,0,278,4606376,3,"0"
"12-002","YA","A",280,4,"variable","low","2","4","2",1,4439,739,292,"0","0","0","4","3","1","2","1","2",5,1,1.6499e+12,1.6499e+12,1.6499e+12,1.6499e+12,1.6499e+12,1.6499e+12,1.6499e+12,1.65e+12,0,279,4615594,-2,"0"
"12-002","YA","A",281,4,"variable","high","2","3","1",5,4464,743,41,"0","0","0","4","3","1","2","1","2",5,1,1.6499e+12,1.6499e+12,1.6499e+12,1.6499e+12,1.6499e+12,1.6499e+12,1.6499e+12,1.65e+12,0,280,4625617,2,"0"
"12-002","YA","A",282,4,"variable","low","1","1","2",3,4467,953,379,"0","0","0","1","2","2","1","1","2",6,3,1.6499e+12,1.6499e+12,1.6499e+12,1.6499e+12,1.6499e+12,1.6499e+12,1.6499e+12,1.65e+12,0,281,4635238,-1.5,"1"
"12-002","YA","A",283,4,"variable","low","1","2","1",5,4472,604,439,"0","0","0","2","1","2","1","1","2",5,0,1.6499e+12,1.6499e+12,1.6499e+12,1.6499e+12,1.6499e+12,1.6499e+12,1.6499e+12,1.65e+12,0,282,4645261,2.5,"0"
"12-002","YA","A",284,4,"variable","low","1","2","1",5,4477,1267,524,"0","0","0","1","2","2","1","1","2",5,2,1.6499e+12,1.6499e+12,1.6499e+12,1.6499e+12,1.6499e+12,1.6499e+12,1.6499e+12,1.65e+12,0,283,4655286,1.5,"0"
"12-002","YA","A",285,4,"variable","high","1","2","1",6,4507,587,31,"0","0","0","1","2","2","1","1","2",6,4,1.6499e+12,1.6499e+12,1.6499e+12,1.6499e+12,1.6499e+12,1.6499e+12,1.6499e+12,1.65e+12,0,284,4665511,1,"0"
"12-002","YA","A",286,4,"variable","high","1","2","1",8,4547,571,21,"0","0","0","1","2","2","1","1","2",8,7,1.6499e+12,1.6499e+12,1.6499e+12,1.6499e+12,1.6499e+12,1.6499e+12,1.6499e+12,1.65e+12,0,285,4676138,0.5,"0"
"12-002","YA","A",287,4,"variable","high","1","2","1",8,4587,823,361,"0","0","0","2","1","2","1","1","2",8,8,1.6499e+12,1.6499e+12,1.6499e+12,1.6499e+12,1.6499e+12,1.6499e+12,1.6499e+12,1.65e+12,0,286,4686767,0,"0"
"12-002","YA","A",288,4,"variable","high","2","3","1",8,4627,899,711,"0","0","0","4","3","2","1","1","2",8,9,1.6499e+12,1.6499e+12,1.6499e+12,1.6499e+12,1.6499e+12,1.6499e+12,1.6499e+12,1.65e+12,0,287,4697391,-0.5,"0"
"12-002","YA","A",289,4,"variable","low","2","3","1",6,4633,564,295,"0","0","0","4","3","2","1","1","2",6,9,1.6499e+12,1.6499e+12,1.6499e+12,1.6499e+12,1.6499e+12,1.6499e+12,1.6499e+12,1.65e+12,0,288,4707611,-1.5,"0"
"12-002","YA","A",290,4,"variable","low","1","2","1",3,4636,1030,601,"0","0","0","2","1","2","1","1","2",3,8,1.6499e+12,1.6499e+12,1.6499e+12,1.6499e+12,1.6499e+12,1.6499e+12,1.6499e+12,1.65e+12,0,289,4717231,-2.5,"0"
"12-002","YA","A",291,4,"variable","low","1","1","2",6,4642,507,277,"0","0","0","2","1","2","1","1","2",4,6,1.6499e+12,1.6499e+12,1.6499e+12,1.6499e+12,1.6499e+12,1.6499e+12,1.6499e+12,1.65e+12,0,290,4727455,1,"0"
"12-002","YA","A",292,4,"variable","low","2","4","2",8,4650,794,413,"0","0","0","4","3","2","1","1","2",5,8,1.6499e+12,1.6499e+12,1.6499e+12,1.6499e+12,1.6499e+12,1.6499e+12,1.6499e+12,1.65e+12,0,291,4738082,1.5,"0"
"12-002","YA","A",293,4,"variable","high","1","1","2",8,4690,665,427,"0","0","0","1","2","2","1","1","2",3,8,1.6499e+12,1.6499e+12,1.6499e+12,1.6499e+12,1.6499e+12,1.6499e+12,1.6499e+12,1.65e+12,0,292,4748708,2.5,"0"
"12-002","YA","A",294,4,"variable","low","2","4","2",7,4697,614,362,"0","0","0","3","4","2","1","1","2",3,7,1.6499e+12,1.6499e+12,1.6499e+12,1.6499e+12,1.6499e+12,1.6499e+12,1.6499e+12,1.65e+12,0,293,4759129,2,"0"
"12-002","YA","A",295,4,"variable","high","2","4","2",8,4737,889,476,"0","0","0","3","4","2","1","1","2",1,8,1.6499e+12,1.6499e+12,1.6499e+12,1.6499e+12,1.6499e+12,1.6499e+12,1.6499e+12,1.65e+12,0,294,4769754,3.5,"0"
"12-002","YA","A",296,4,"variable","low","1","1","2",9,4746,708,519,"0","0","0","1","2","2","1","2","1",3,9,1.6499e+12,1.6499e+12,1.6499e+12,1.6499e+12,1.6499e+12,1.6499e+12,1.6499e+12,1.65e+12,0,295,4780587,3,"0"
"12-002","YA","A",297,4,"variable","high","1","1","2",8,4786,552,362,"0","0","0","2","1","2","1","2","1",0,8,1.6499e+12,1.6499e+12,1.6499e+12,1.6499e+12,1.6499e+12,1.6499e+12,1.6499e+12,1.65e+12,0,296,4791213,4,"0"
"12-002","YA","A",298,4,"variable","low","1","1","2",9,4795,798,401,"0","0","0","1","2","2","1","2","1",2,9,1.6499e+12,1.6499e+12,1.6499e+12,1.6499e+12,1.6499e+12,1.6499e+12,1.6499e+12,1.65e+12,0,297,4802039,3.5,"0"
"12-002","YA","A",299,4,"variable","high","2","4","1",3,4810,883,604,"0","0","0","4","3","2","1","2","1",3,7,1.6499e+12,1.6499e+12,1.6499e+12,1.6499e+12,1.6499e+12,1.6499e+12,1.6499e+12,1.65e+12,0,298,4811662,-2,"1"
"12-002","YA","A",300,4,"variable","low","1","1","2",NA,4810,843,NA,"0","1","1","2","1","2","1","2","1",1,5,1.6499e+12,1.6499e+12,1.6499e+12,1.6499e+12,1.6499e+12,0,0,1.65e+12,0,299,4820178,NA,"0"
"12-002","YA","A",301,4,"variable","low","2","3","2",1,4811,669,416,"0","0","0","3","4","2","1","2","1",2,1,1.6499e+12,1.6499e+12,1.6499e+12,1.6499e+12,1.6499e+12,1.6499e+12,1.6499e+12,1.65e+12,0,300,4829399,-0.5,"0"
"12-002","YA","A",302,4,"variable","high","2","4","2",1,4816,1025,380,"0","0","0","3","4","2","1","1","2",2,1,1.6499e+12,1.6499e+12,1.6499e+12,1.6499e+12,1.6499e+12,1.6499e+12,1.6499e+12,1.65e+12,0,301,4838618,-0.5,"1"
"12-002","YA","A",303,4,"variable","low","2","3","1",3,4819,680,322,"0","0","0","3","4","2","1","1","2",3,0,1.6499e+12,1.6499e+12,1.6499e+12,1.6499e+12,1.6499e+12,1.6499e+12,1.6499e+12,1.65e+12,0,302,4848241,1.5,"0"
"12-002","YA","A",304,4,"variable","low","2","3","1",3,4822,687,321,"0","0","0","3","4","2","1","1","2",3,1,1.6499e+12,1.6499e+12,1.6499e+12,1.6499e+12,1.6499e+12,1.6499e+12,1.6499e+12,1.65e+12,0,303,4857864,1,"0"
"12-002","YA","A",305,4,"variable","low","1","1","2",1,4823,650,380,"0","0","0","2","1","2","1","1","2",3,1,1.6499e+12,1.6499e+12,1.6499e+12,1.6499e+12,1.6499e+12,1.6499e+12,1.6499e+12,1.65e+12,0,304,4867082,-1,"0"
"12-002","YA","A",306,4,"variable","low","1","2","1",3,4826,584,323,"0","0","0","1","2","2","1","1","2",3,3,1.6499e+12,1.6499e+12,1.6499e+12,1.6499e+12,1.6499e+12,1.6499e+12,1.6499e+12,1.65e+12,0,305,4876701,0,"0"
"12-002","YA","A",307,4,"variable","low","1","2","1",6,4832,611,510,"0","0","0","1","2","2","1","1","2",6,6,1.6499e+12,1.6499e+12,1.6499e+12,1.6499e+12,1.6499e+12,1.6499e+12,1.6499e+12,1.65e+12,0,306,4886929,0,"0"
"12-002","YA","A",308,4,"variable","high","2","3","1",8,4872,679,410,"0","0","0","4","3","2","1","1","2",8,5,1.6499e+12,1.6499e+12,1.6499e+12,1.6499e+12,1.6499e+12,1.6499e+12,1.6499e+12,1.65e+12,0,307,4897559,1.5,"0"
"12-002","YA","A",309,4,"variable","low","1","2","1",8,4880,732,406,"0","0","0","2","1","2","1","2","1",8,8,1.6499e+12,1.6499e+12,1.6499e+12,1.6499e+12,1.6499e+12,1.6499e+12,1.6499e+12,1.65e+12,0,308,4908183,0,"0"
"12-002","YA","A",310,4,"variable","low","2","3","2",7,4887,522,315,"0","0","0","3","4","2","1","2","1",7,7,1.6499e+12,1.6499e+12,1.6499e+12,1.6499e+12,1.6499e+12,1.6499e+12,1.6499e+12,1.65e+12,0,309,4918611,0,"1"
"12-002","YA","A",311,4,"variable","high","1","1","2",7,4922,827,679,"0","0","0","2","1","2","1","2","1",8,7,1.6499e+12,1.6499e+12,1.6499e+12,1.6499e+12,1.6499e+12,1.6499e+12,1.6499e+12,1.65e+12,0,310,4929038,-0.5,"0"
"12-002","YA","A",312,4,"variable","low","2","3","2",8,4930,684,431,"0","0","0","3","4","2","1","2","1",8,8,1.6499e+12,1.6499e+12,1.6499e+12,1.6499e+12,1.6499e+12,1.6499e+12,1.6499e+12,1.65e+12,0,311,4939665,0,"0"
"12-002","YA","A",313,4,"variable","low","2","3","2",9,4939,552,316,"0","0","0","4","3","2","1","2","1",8,9,1.6499e+12,1.6499e+12,1.6499e+12,1.6499e+12,1.6499e+12,1.6499e+12,1.6499e+12,1.65e+12,0,312,4950494,0.5,"0"
"12-002","YA","A",314,4,"variable","high","2","3","2",8,4979,451,455,"0","0","0","3","4","2","1","2","1",8,8,1.6499e+12,1.6499e+12,1.6499e+12,1.6499e+12,1.6499e+12,1.6499e+12,1.6499e+12,1.65e+12,0,313,4961119,0,"0"
"12-002","YA","A",315,4,"variable","high","2","3","2",6,5009,704,464,"0","0","0","4","3","2","1","2","1",8,6,1.6499e+12,1.6499e+12,1.6499e+12,1.6499e+12,1.6499e+12,1.6499e+12,1.6499e+12,1.65e+12,0,314,4971349,-1,"0"
"12-002","YA","A",316,4,"variable","low","2","3","2",3,5012,452,421,"0","0","0","4","3","2","1","2","1",7,3,1.6499e+12,1.6499e+12,1.6499e+12,1.6499e+12,1.6499e+12,1.6499e+12,1.6499e+12,1.65e+12,0,315,4980971,-2,"0"
"12-002","YA","A",317,4,"variable","low","1","2","1",4,5016,646,313,"0","0","0","2","1","2","1","2","1",4,4,1.6499e+12,1.6499e+12,1.6499e+12,1.6499e+12,1.6499e+12,1.6499e+12,1.6499e+12,1.65e+12,0,316,4990793,0,"0"
"12-002","YA","A",318,4,"variable","high","2","4","1",5,5041,857,516,"0","0","0","3","4","2","1","2","1",5,2,1.6499e+12,1.6499e+12,1.6499e+12,1.6499e+12,1.6499e+12,1.6499e+12,1.6499e+12,1.65e+12,0,317,5000814,1.5,"0"
"12-002","YA","A",319,4,"variable","low","2","4","1",3,5044,514,428,"0","0","0","4","3","2","1","2","1",3,0,1.6499e+12,1.6499e+12,1.6499e+12,1.6499e+12,1.6499e+12,1.6499e+12,1.6499e+12,1.65e+12,0,318,5010437,1.5,"0"
"12-002","YA","A",320,4,"variable","low","2","3","2",0,5044,923,445,"0","0","0","4","3","2","1","2","1",1,0,1.6499e+12,1.6499e+12,1.6499e+12,1.6499e+12,1.6499e+12,1.6499e+12,1.6499e+12,1.65e+12,0,319,5019455,-0.5,"0"
"12-003","YA","D",1,1,"variable","low","2","3","1",6,6,1288,1138,"0","0","0","3","4","1","2","1","2",6,2,1.64992e+12,1.64992e+12,1.64992e+12,1.64992e+12,1.64992e+12,1.64992e+12,1.64992e+12,1.65e+12,0,0,1367558,2,"1"
"12-003","YA","D",2,1,"variable","low","1","1","1",3,9,1057,653,"0","0","0","2","1","1","2","1","2",3,6,1.64992e+12,1.64992e+12,1.64992e+12,1.64992e+12,1.64992e+12,1.64992e+12,1.64992e+12,1.65e+12,0,1,1377177,-1.5,"0"
"12-003","YA","D",3,1,"variable","low","1",NA,NA,NA,9,NA,NA,"1","0","1","1","2","1","2","1","2",2,3,1.64992e+12,1.64992e+12,1.64992e+12,0,0,0,0,1.65e+12,0,2,1383688,NA,NA
"12-003","YA","D",4,1,"variable","low","1","1","1",4,13,775,546,"0","0","0","2","1","1","2","1","2",4,4,1.64992e+12,1.64992e+12,1.64992e+12,1.64992e+12,1.64992e+12,1.64992e+12,1.64992e+12,1.65e+12,0,3,1393507,0,"0"
"12-003","YA","D",5,1,"variable","high","2","3","1",4,33,1099,1228,"0","0","0","4","3","1","2","1","2",4,3,1.64992e+12,1.64992e+12,1.64992e+12,1.64992e+12,1.64992e+12,1.64992e+12,1.64992e+12,1.65e+12,0,4,1403331,0.5,"0"
"12-003","YA","D",6,1,"variable","high","1",NA,NA,NA,33,NA,NA,"1","0","1","1","2","1","2","1","2",6,4,1.64992e+12,1.64992e+12,1.64992e+12,0,0,0,0,1.65e+12,0,5,1409841,NA,NA
"12-003","YA","D",7,1,"variable","high","1","1","2",3,48,814,1048,"0","0","0","2","1","2","1","1","2",7,3,1.64992e+12,1.64992e+12,1.64992e+12,1.64992e+12,1.64992e+12,1.64992e+12,1.64992e+12,1.65e+12,0,6,1419462,-2,"1"
"12-003","YA","D",8,1,"variable","low","1","2","1",5,53,1049,761,"0","0","0","2","1","2","1","1","2",5,3,1.64992e+12,1.64992e+12,1.64992e+12,1.64992e+12,1.64992e+12,1.64992e+12,1.64992e+12,1.65e+12,0,7,1429488,1,"0"
"12-003","YA","D",9,1,"variable","high","1","2","1",9,98,1071,888,"0","0","0","2","1","2","1","1","2",9,2,1.64992e+12,1.64992e+12,1.64992e+12,1.64992e+12,1.64992e+12,1.64992e+12,1.64992e+12,1.65e+12,0,8,1440319,3.5,"0"
"12-003","YA","D",10,1,"variable","high","1","2","1",7,133,832,865,"0","0","0","1","2","2","1","1","2",7,9,1.64992e+12,1.64992e+12,1.64992e+12,1.64992e+12,1.64992e+12,1.64992e+12,1.64992e+12,1.65e+12,0,9,1450747,-1,"0"
"12-003","YA","D",11,1,"variable","high","2","3","1",7,168,1180,551,"0","0","0","3","4","2","1","1","2",7,7,1.64992e+12,1.64992e+12,1.64992e+12,1.64992e+12,1.64992e+12,1.64992e+12,1.64992e+12,1.65e+12,0,10,1461171,0,"0"
"12-003","YA","D",12,1,"variable","high","1","2","1",8,208,914,555,"0","0","0","2","1","2","1","1","2",8,6,1.64992e+12,1.64992e+12,1.64992e+12,1.64992e+12,1.64992e+12,1.64992e+12,1.64992e+12,1.65e+12,0,11,1471802,1,"0"
"12-003","YA","D",13,1,"variable","low","2","3","1",6,214,774,778,"0","0","0","3","4","2","1","1","2",6,4,1.64992e+12,1.64992e+12,1.64992e+12,1.64992e+12,1.64992e+12,1.64992e+12,1.64992e+12,1.65e+12,0,12,1482022,1,"0"
"12-003","YA","D",14,1,"variable","high","1","2","1",7,249,938,715,"0","0","0","2","1","2","1","1","2",7,5,1.64992e+12,1.64992e+12,1.64992e+12,1.64992e+12,1.64992e+12,1.64992e+12,1.64992e+12,1.65e+12,0,13,1492450,1,"0"
"12-003","YA","D",15,1,"variable","high","2","3","1",5,274,1030,746,"0","0","0","4","3","2","1","1","2",5,4,1.64992e+12,1.64992e+12,1.64992e+12,1.64992e+12,1.64992e+12,1.64992e+12,1.64992e+12,1.65e+12,0,14,1502470,0.5,"0"
"12-003","YA","D",16,1,"variable","high","1","1","2",6,304,1274,748,"0","0","0","1","2","2","1","1","2",2,6,1.64992e+12,1.64992e+12,1.64992e+12,1.64992e+12,1.64992e+12,1.64992e+12,1.64992e+12,1.65e+12,0,15,1512694,2,"0"
"12-003","YA","D",17,1,"variable","high","2","4","2",6,334,593,453,"0","0","0","4","3","2","1","1","2",1,6,1.64992e+12,1.64992e+12,1.64992e+12,1.64992e+12,1.64992e+12,1.64992e+12,1.64992e+12,1.65e+12,0,16,1522913,2.5,"0"
"12-003","YA","D",18,1,"variable","low","1","1","2",6,340,814,562,"0","0","0","2","1","2","1","1","2",1,6,1.64992e+12,1.64992e+12,1.64992e+12,1.64992e+12,1.64992e+12,1.64992e+12,1.64992e+12,1.65e+12,0,17,1533135,2.5,"0"
"12-003","YA","D",19,1,"variable","high","2","4","2",6,370,737,1088,"0","0","0","3","4","2","1","1","2",1,6,1.64992e+12,1.64992e+12,1.64992e+12,1.64992e+12,1.64992e+12,1.64992e+12,1.64992e+12,1.65e+12,0,18,1543361,2.5,"0"
"12-003","YA","D",20,1,"variable","low","1","2","1",1,371,631,489,"0","0","0","2","1","2","1","1","2",1,2,1.64992e+12,1.64992e+12,1.64992e+12,1.64992e+12,1.64992e+12,1.64992e+12,1.64992e+12,1.65e+12,0,19,1552576,-0.5,"0"
"12-003","YA","D",21,1,"variable","low","2","3","1",5,376,728,1156,"0","0","0","4","3","1","2","1","2",5,2,1.64992e+12,1.64992e+12,1.64992e+12,1.64992e+12,1.64992e+12,1.64992e+12,1.64992e+12,1.65e+12,0,20,1562598,1.5,"0"
"12-003","YA","D",22,1,"variable","high","2","3","1",6,406,787,518,"0","0","0","4","3","1","2","1","2",6,5,1.64992e+12,1.64992e+12,1.64992e+12,1.64992e+12,1.64992e+12,1.64992e+12,1.64992e+12,1.65e+12,0,21,1572817,0.5,"0"
"12-003","YA","D",23,1,"variable","high","1","1","1",8,446,622,489,"0","0","0","1","2","1","2","1","2",8,9,1.64992e+12,1.64992e+12,1.64992e+12,1.64992e+12,1.64992e+12,1.64992e+12,1.64992e+12,1.65e+12,0,22,1583442,-0.5,"1"
"12-003","YA","D",24,1,"variable","low","2","4","2",4,450,799,690,"0","0","0","3","4","1","2","1","2",7,4,1.64992e+12,1.64992e+12,1.64992e+12,1.64992e+12,1.64992e+12,1.64992e+12,1.64992e+12,1.65e+12,0,23,1593258,-1.5,"0"
"12-003","YA","D",25,1,"variable","low","2","3","1",8,458,662,593,"0","0","0","4","3","1","2","1","2",8,2,1.64992e+12,1.64992e+12,1.64992e+12,1.64992e+12,1.64992e+12,1.64992e+12,1.64992e+12,1.65e+12,0,24,1603883,3,"0"
"12-003","YA","D",26,1,"variable","low","2","3","1",8,466,796,413,"0","0","0","3","4","1","2","1","2",8,1,1.64992e+12,1.64992e+12,1.64992e+12,1.64992e+12,1.64992e+12,1.64992e+12,1.64992e+12,1.65e+12,0,25,1614510,3.5,"0"
"12-003","YA","D",27,1,"variable","high","1","1","1",8,506,731,941,"0","0","0","1","2","1","2","1","2",8,1,1.64992e+12,1.64992e+12,1.64992e+12,1.64992e+12,1.64992e+12,1.64992e+12,1.64992e+12,1.65e+12,0,26,1625136,3.5,"0"
"12-003","YA","D",28,1,"variable","high","2","3","1",4,526,872,770,"0","0","0","3","4","1","2","1","2",4,2,1.64992e+12,1.64992e+12,1.64992e+12,1.64992e+12,1.64992e+12,1.64992e+12,1.64992e+12,1.65e+12,0,27,1634954,1,"0"
"12-003","YA","D",29,1,"variable","low","1","1","1",8,534,830,57,"0","0","0","2","1","1","2","1","2",8,5,1.64992e+12,1.64992e+12,1.64992e+12,1.64992e+12,1.64992e+12,1.64992e+12,1.64992e+12,1.65e+12,0,28,1645582,1.5,"0"
"12-003","YA","D",30,1,"variable","high","1","1","1",NA,534,721,NA,"0","1","1","1","2","1","2","1","2",8,4,1.64992e+12,1.64992e+12,1.64992e+12,1.64992e+12,1.64992e+12,0,0,1.65e+12,0,29,1654094,NA,"0"
"12-003","YA","D",31,1,"variable","low","2","4","2",6,540,769,852,"0","0","0","3","4","1","2","1","2",5,6,1.64992e+12,1.64992e+12,1.64992e+12,1.64992e+12,1.64992e+12,1.64992e+12,1.64992e+12,1.65e+12,0,30,1664317,0.5,"0"
"12-003","YA","D",32,1,"variable","low","2","4","1",NA,540,1107,NA,"0","1","1","4","3","1","2","2","1",0,4,1.64992e+12,1.64992e+12,1.64992e+12,1.64992e+12,1.64992e+12,0,0,1.65e+12,0,31,1672832,NA,"1"
"12-003","YA","D",33,1,"variable","low","1","1","1",5,545,896,643,"0","0","0","2","1","1","2","2","1",5,3,1.64992e+12,1.64992e+12,1.64992e+12,1.64992e+12,1.64992e+12,1.64992e+12,1.64992e+12,1.65e+12,0,32,1682852,1,"0"
"12-003","YA","D",34,1,"variable","high","1",NA,NA,NA,545,NA,NA,"1","0","1","2","1","1","2","2","1",6,3,1.64992e+12,1.64992e+12,1.64992e+12,0,0,0,0,1.65e+12,0,33,1689359,NA,NA
"12-003","YA","D",35,1,"variable","low","2","4","1",8,553,928,660,"0","0","0","3","4","1","2","2","1",8,2,1.64992e+12,1.64992e+12,1.64992e+12,1.64992e+12,1.64992e+12,1.64992e+12,1.64992e+12,1.65e+12,0,34,1699982,3,"0"
"12-003","YA","D",36,1,"variable","high","2","4","1",8,593,922,1092,"0","0","0","3","4","1","2","2","1",8,2,1.64992e+12,1.64992e+12,1.64992e+12,1.64992e+12,1.64992e+12,1.64992e+12,1.64992e+12,1.65e+12,0,35,1710606,3,"0"
"12-003","YA","D",37,1,"variable","low","2","4","1",5,598,859,670,"0","0","0","4","3","1","2","2","1",5,2,1.64992e+12,1.64992e+12,1.64992e+12,1.64992e+12,1.64992e+12,1.64992e+12,1.64992e+12,1.65e+12,0,36,1720625,1.5,"0"
"12-003","YA","D",38,1,"variable","low","1","1","1",5,603,1223,744,"0","0","0","1","2","1","2","2","1",5,7,1.64992e+12,1.64992e+12,1.64992e+12,1.64992e+12,1.64992e+12,1.64992e+12,1.64992e+12,1.65e+12,0,37,1730648,-1,"0"
"12-003","YA","D",39,1,"variable","low","2",NA,NA,NA,603,NA,NA,"1","0","1","3","4","1","2","1","2",6,6,1.64992e+12,1.64992e+12,1.64992e+12,0,0,0,0,1.65e+12,0,38,1737158,NA,NA
"12-003","YA","D",40,1,"variable","low","1","2","2",8,611,1082,1292,"0","0","0","1","2","1","2","1","2",7,8,1.64992e+12,1.64992e+12,1.64992e+12,1.64992e+12,1.64992e+12,1.64992e+12,1.64992e+12,1.65e+12,0,39,1747785,0.5,"0"
"12-003","YA","D",41,1,"variable","high","2","4","2",7,646,590,737,"0","0","0","4","3","1","2","1","2",6,7,1.64992e+12,1.64992e+12,1.64992e+12,1.64992e+12,1.64992e+12,1.64992e+12,1.64992e+12,1.65e+12,0,40,1758211,0.5,"1"
"12-003","YA","D",42,1,"variable","low","2","4","2",7,653,1292,989,"0","0","0","3","4","1","2","1","2",1,7,1.64992e+12,1.64992e+12,1.64992e+12,1.64992e+12,1.64992e+12,1.64992e+12,1.64992e+12,1.65e+12,0,41,1768637,3,"0"
"12-003","YA","D",43,1,"variable","low","2","4","2",5,658,547,510,"0","0","0","4","3","1","2","1","2",2,5,1.64992e+12,1.64992e+12,1.64992e+12,1.64992e+12,1.64992e+12,1.64992e+12,1.64992e+12,1.65e+12,0,42,1778659,1.5,"0"
"12-003","YA","D",44,1,"variable","high","2","4","2",7,693,756,485,"0","0","0","4","3","1","2","1","2",2,7,1.64992e+12,1.64992e+12,1.64992e+12,1.64992e+12,1.64992e+12,1.64992e+12,1.64992e+12,1.65e+12,0,43,1789085,2.5,"0"
"12-003","YA","D",45,1,"variable","high","2","4","2",8,733,915,527,"0","0","0","4","3","1","2","1","2",3,8,1.64992e+12,1.64992e+12,1.64992e+12,1.64992e+12,1.64992e+12,1.64992e+12,1.64992e+12,1.65e+12,0,44,1799708,2.5,"0"
"12-003","YA","D",46,1,"variable","high","2","4","2",8,773,692,792,"0","0","0","3","4","1","2","1","2",7,8,1.64992e+12,1.64992e+12,1.64992e+12,1.64992e+12,1.64992e+12,1.64992e+12,1.64992e+12,1.65e+12,0,45,1810330,0.5,"0"
"12-003","YA","D",47,1,"variable","low","1","1","1",1,774,798,771,"0","0","0","1","2","1","2","1","2",1,9,1.64992e+12,1.64992e+12,1.64992e+12,1.64992e+12,1.64992e+12,1.64992e+12,1.64992e+12,1.65e+12,0,46,1819542,-4,"0"
"12-003","YA","D",48,1,"variable","low","2","4","1",1,775,651,547,"0","0","0","4","3","1","2","2","1",1,9,1.64992e+12,1.64992e+12,1.64992e+12,1.64992e+12,1.64992e+12,1.64992e+12,1.64992e+12,1.65e+12,0,47,1828758,-4,"1"
"12-003","YA","D",49,1,"variable","low","2","3","2",6,781,649,621,"0","0","0","4","3","1","2","2","1",1,6,1.64992e+12,1.64992e+12,1.64992e+12,1.64992e+12,1.64992e+12,1.64992e+12,1.64992e+12,1.65e+12,0,48,1838977,2.5,"0"
"12-003","YA","D",50,1,"variable","low","2","3","2",7,788,662,640,"0","0","0","4","3","1","2","2","1",0,7,1.64992e+12,1.64992e+12,1.64992e+12,1.64992e+12,1.64992e+12,1.64992e+12,1.64992e+12,1.65e+12,0,49,1849402,3.5,"0"
"12-003","YA","D",51,1,"variable","low","1","1","1",2,790,1124,501,"0","0","0","2","1","1","2","2","1",2,6,1.64992e+12,1.64992e+12,1.64992e+12,1.64992e+12,1.64992e+12,1.64992e+12,1.64992e+12,1.65e+12,0,50,1858823,-2,"0"
"12-003","YA","D",52,1,"variable","low","2","4","1",0,790,656,563,"0","0","0","4","3","1","2","2","1",0,4,1.64992e+12,1.64992e+12,1.64992e+12,1.64992e+12,1.64992e+12,1.64992e+12,1.64992e+12,1.65e+12,0,51,1867835,-2,"0"
"12-003","YA","D",53,1,"variable","low","2","3","2",5,795,1020,789,"0","0","0","3","4","1","2","2","1",4,5,1.64992e+12,1.64992e+12,1.64992e+12,1.64992e+12,1.64992e+12,1.64992e+12,1.64992e+12,1.65e+12,0,52,1877857,0.5,"0"
"12-003","YA","D",54,1,"variable","high","2","4","1",4,815,901,576,"0","0","0","4","3","1","2","2","1",4,5,1.64992e+12,1.64992e+12,1.64992e+12,1.64992e+12,1.64992e+12,1.64992e+12,1.64992e+12,1.65e+12,0,53,1887678,-0.5,"0"
"12-003","YA","D",55,1,"variable","low","1","2","2",8,823,1368,1155,"0","0","0","1","2","1","2","2","1",6,8,1.64992e+12,1.64992e+12,1.64992e+12,1.64992e+12,1.64992e+12,1.64992e+12,1.64992e+12,1.65e+12,0,54,1898304,1,"0"
"12-003","YA","D",56,1,"variable","high","1","2","2",6,853,1031,578,"0","0","0","2","1","1","2","1","2",5,6,1.64992e+12,1.64992e+12,1.64992e+12,1.64992e+12,1.64992e+12,1.64992e+12,1.64992e+12,1.65e+12,0,55,1908523,0.5,"0"
"12-003","YA","D",57,1,"variable","low","1","2","2",8,861,595,942,"0","0","0","2","1","1","2","1","2",5,8,1.64992e+12,1.64992e+12,1.64992e+12,1.64992e+12,1.64992e+12,1.64992e+12,1.64992e+12,1.65e+12,0,56,1919151,1.5,"0"
"12-003","YA","D",58,1,"variable","high","2","4","2",8,901,816,490,"0","0","0","3","4","1","2","1","2",5,8,1.64992e+12,1.64992e+12,1.64992e+12,1.64992e+12,1.64992e+12,1.64992e+12,1.64992e+12,1.65e+12,0,57,1929776,1.5,"1"
"12-003","YA","D",59,1,"variable","low","1","2","2",8,909,759,729,"0","0","0","1","2","1","2","1","2",4,8,1.64992e+12,1.64992e+12,1.64992e+12,1.64992e+12,1.64992e+12,1.64992e+12,1.64992e+12,1.65e+12,0,58,1940402,2,"0"
"12-003","YA","D",60,1,"variable","high","2","3","1",3,924,803,598,"0","0","0","3","4","1","2","1","2",3,8,1.64992e+12,1.64992e+12,1.64992e+12,1.64992e+12,1.64992e+12,1.64992e+12,1.64992e+12,1.65e+12,0,59,1950022,-2.5,"0"
"12-003","YA","D",61,1,"variable","high","1","2","2",8,964,584,612,"0","0","0","1","2","1","2","1","2",3,8,1.64992e+12,1.64992e+12,1.64992e+12,1.64992e+12,1.64992e+12,1.64992e+12,1.64992e+12,1.65e+12,0,60,1960644,2.5,"0"
"12-003","YA","D",62,1,"variable","high","1","2","2",9,1009,737,442,"0","0","0","2","1","1","2","1","2",1,9,1.64992e+12,1.64992e+12,1.64992e+12,1.64992e+12,1.64992e+12,1.64992e+12,1.64992e+12,1.65e+12,0,61,1971475,4,"0"
"12-003","YA","D",63,1,"variable","high","2","4","2",8,1049,964,511,"0","0","0","3","4","1","2","1","2",4,8,1.64992e+12,1.64992e+12,1.64992e+12,1.64992e+12,1.64992e+12,1.64992e+12,1.64992e+12,1.65e+12,0,62,1982099,2,"0"
"12-003","YA","D",64,1,"variable","high","2","4","2",4,1069,635,500,"0","0","0","4","3","1","2","1","2",5,4,1.64992e+12,1.64992e+12,1.64992e+12,1.64992e+12,1.64992e+12,1.64992e+12,1.64992e+12,1.65e+12,0,63,1991921,-0.5,"0"
"12-003","YA","D",65,1,"variable","high","1","1","1",9,1114,684,663,"0","0","0","2","1","1","2","1","2",9,5,1.64992e+12,1.64992e+12,1.64992e+12,1.64992e+12,1.64992e+12,1.64992e+12,1.64992e+12,1.65e+12,0,64,2002751,2,"0"
"12-003","YA","D",66,1,"variable","low","1","1","1",8,1122,1006,473,"0","0","0","1","2","1","2","1","2",8,7,1.64992e+12,1.64992e+12,1.64992e+12,1.64992e+12,1.64992e+12,1.64992e+12,1.64992e+12,1.65e+12,0,65,2013376,0.5,"0"
"12-003","YA","D",67,1,"variable","high","2","3","1",8,1162,878,704,"0","0","0","3","4","1","2","1","2",8,8,1.64992e+12,1.64992e+12,1.64992e+12,1.64992e+12,1.64992e+12,1.64992e+12,1.64992e+12,1.65e+12,0,66,2024003,0,"0"
"12-003","YA","D",68,1,"variable","high","2","3","1",7,1197,879,632,"0","0","0","4","3","1","2","1","2",7,8,1.64992e+12,1.64992e+12,1.64992e+12,1.64992e+12,1.64992e+12,1.64992e+12,1.64992e+12,1.65e+12,0,67,2034425,-0.5,"0"
"12-003","YA","D",69,1,"variable","low","2","3","2",8,1205,1246,968,"0","0","0","3","4","1","2","2","1",9,8,1.64992e+12,1.64992e+12,1.64992e+12,1.64992e+12,1.64992e+12,1.64992e+12,1.64992e+12,1.65e+12,0,68,2045053,-0.5,"1"
"12-003","YA","D",70,1,"variable","low","2","3","2",8,1213,954,614,"0","0","0","4","3","1","2","2","1",8,8,1.64992e+12,1.64992e+12,1.64992e+12,1.64992e+12,1.64992e+12,1.64992e+12,1.64992e+12,1.65e+12,0,69,2055678,0,"0"
"12-003","YA","D",71,1,"variable","high","1","1","1",6,1243,697,19,"0","0","0","1","2","1","2","2","1",6,8,1.64992e+12,1.64992e+12,1.64992e+12,1.64992e+12,1.64992e+12,1.64992e+12,1.64992e+12,1.65e+12,0,70,2065901,-1,"0"
"12-003","YA","D",72,1,"variable","high","2","4","1",7,1278,883,884,"0","0","0","3","4","1","2","2","1",7,6,1.64992e+12,1.64992e+12,1.64992e+12,1.64992e+12,1.64992e+12,1.64992e+12,1.64992e+12,1.65e+12,0,71,2076327,0.5,"0"
"12-003","YA","D",73,1,"variable","high","1","2","2",5,1303,656,619,"0","0","0","2","1","1","2","2","1",6,5,1.64992e+12,1.64992e+12,1.64992e+12,1.64992e+12,1.64992e+12,1.64992e+12,1.64992e+12,1.65e+12,0,72,2086349,-0.5,"0"
"12-003","YA","D",74,1,"variable","high","1","2","2",NA,1303,714,NA,"0","1","1","1","2","1","2","2","1",2,5,1.64992e+12,1.64992e+12,1.64992e+12,1.64992e+12,1.64992e+12,0,0,1.65e+12,0,73,2094864,NA,"0"
"12-003","YA","D",75,1,"variable","low","1","1","1",1,1304,886,809,"0","0","0","1","2","1","2","2","1",1,6,1.64992e+12,1.64992e+12,1.64992e+12,1.64992e+12,1.64992e+12,1.64992e+12,1.64992e+12,1.65e+12,0,74,2104078,-2.5,"0"
"12-003","YA","D",76,1,"variable","low","1","1","1",1,1305,664,828,"0","0","0","1","2","1","2","2","1",1,8,1.64992e+12,1.64992e+12,1.64992e+12,1.64992e+12,1.64992e+12,1.64992e+12,1.64992e+12,1.65e+12,0,75,2113295,-3.5,"0"
"12-003","YA","D",77,1,"variable","low","1","2","2",7,1312,624,850,"0","0","0","1","2","1","2","2","1",2,7,1.64992e+12,1.64992e+12,1.64992e+12,1.64992e+12,1.64992e+12,1.64992e+12,1.64992e+12,1.65e+12,0,76,2123720,2.5,"0"
"12-003","YA","D",78,1,"variable","high","1","1","1",0,1312,1079,1097,"0","0","0","2","1","1","2","2","1",0,6,1.64992e+12,1.64992e+12,1.64992e+12,1.64992e+12,1.64992e+12,1.64992e+12,1.64992e+12,1.65e+12,0,77,2132734,-3,"0"
"12-003","YA","D",79,1,"variable","high","1","1","1",3,1327,616,777,"0","0","0","1","2","1","2","2","1",3,2,1.64992e+12,1.64992e+12,1.64992e+12,1.64992e+12,1.64992e+12,1.64992e+12,1.64992e+12,1.65e+12,0,78,2142357,0.5,"0"
"12-003","YA","D",80,1,"variable","low","1","1","1",6,1333,642,743,"0","0","0","2","1","1","2","2","1",6,3,1.64992e+12,1.64992e+12,1.64992e+12,1.64992e+12,1.64992e+12,1.64992e+12,1.64992e+12,1.65e+12,0,79,2152576,1.5,"0"
"12-003","YA","D",81,2,"stable","high","1",NA,NA,NA,1333,NA,NA,"1","0","1","1","2","2","1","1","2",6,1,1.64992e+12,1.64992e+12,1.64992e+12,0,0,0,0,1.65e+12,0,80,2170659,NA,"0"
"12-003","YA","D",82,2,"stable","high","1","2","1",8,1373,460,1319,"0","0","0","2","1","2","1","1","2",8,1,1.64992e+12,1.64992e+12,1.64992e+12,1.64992e+12,1.64992e+12,1.64992e+12,1.64992e+12,1.65e+12,0,81,2181286,3.5,"0"
"12-003","YA","D",83,2,"stable","high","2","4","2",4,1393,649,580,"0","0","0","3","4","2","1","1","2",6,4,1.64992e+12,1.64992e+12,1.64992e+12,1.64992e+12,1.64992e+12,1.64992e+12,1.64992e+12,1.65e+12,0,82,2191105,-1,"0"
"12-003","YA","D",84,2,"stable","low","1","2","1",9,1402,990,599,"0","0","0","2","1","2","1","1","2",9,2,1.64992e+12,1.64992e+12,1.64992e+12,1.64992e+12,1.64992e+12,1.64992e+12,1.64992e+12,1.65e+12,0,83,2201933,3.5,"0"
"12-003","YA","D",85,2,"stable","high","2","3","1",7,1437,1257,988,"0","0","0","3","4","2","1","1","2",7,4,1.64992e+12,1.64992e+12,1.64992e+12,1.64992e+12,1.64992e+12,1.64992e+12,1.64992e+12,1.65e+12,0,84,2212361,1.5,"0"
"12-003","YA","D",86,2,"stable","high","1","1","2",7,1472,654,691,"0","0","0","2","1","2","1","1","2",9,7,1.64992e+12,1.64992e+12,1.64992e+12,1.64992e+12,1.64992e+12,1.64992e+12,1.64992e+12,1.65e+12,0,85,2222784,-1,"0"
"12-003","YA","D",87,2,"stable","low","1","1","2",7,1479,639,625,"0","0","0","1","2","2","1","1","2",9,7,1.64992e+12,1.64992e+12,1.64992e+12,1.64992e+12,1.64992e+12,1.64992e+12,1.64992e+12,1.65e+12,0,86,2233209,-1,"0"
"12-003","YA","D",88,2,"stable","high","2","3","1",6,1509,935,657,"0","0","0","3","4","2","1","1","2",6,8,1.64992e+12,1.64992e+12,1.64992e+12,1.64992e+12,1.64992e+12,1.64992e+12,1.64992e+12,1.65e+12,0,87,2243432,-1,"0"
"12-003","YA","D",89,2,"stable","low","2","4","2",9,1518,696,722,"0","0","0","3","4","2","1","1","2",3,9,1.64992e+12,1.64992e+12,1.64992e+12,1.64992e+12,1.64992e+12,1.64992e+12,1.64992e+12,1.65e+12,0,88,2254257,3,"0"
"12-003","YA","D",90,2,"stable","low","2","4","2",8,1526,999,631,"0","0","0","4","3","2","1","1","2",1,8,1.64992e+12,1.64992e+12,1.64992e+12,1.64992e+12,1.64992e+12,1.64992e+12,1.64992e+12,1.65e+12,0,89,2264884,3.5,"0"
"12-003","YA","D",91,2,"stable","low","2","3","1",3,1529,946,1035,"0","0","0","3","4","2","1","1","2",3,6,1.64992e+12,1.64992e+12,1.64992e+12,1.64992e+12,1.64992e+12,1.64992e+12,1.64992e+12,1.65e+12,0,90,2274505,-1.5,"0"
"12-003","YA","D",92,2,"stable","high","2","4","2",8,1569,599,623,"0","0","0","4","3","2","1","1","2",0,8,1.64992e+12,1.64992e+12,1.64992e+12,1.64992e+12,1.64992e+12,1.64992e+12,1.64992e+12,1.65e+12,0,91,2285132,4,"0"
"12-003","YA","D",93,2,"stable","high","2","4","2",7,1604,545,667,"0","0","0","4","3","2","1","1","2",4,7,1.64992e+12,1.64992e+12,1.64992e+12,1.64992e+12,1.64992e+12,1.64992e+12,1.64992e+12,1.65e+12,0,92,2295558,1.5,"0"
"12-003","YA","D",94,2,"stable","high","1","2","1",7,1639,1184,778,"0","0","0","2","1","2","1","1","2",7,7,1.64992e+12,1.64992e+12,1.64992e+12,1.64992e+12,1.64992e+12,1.64992e+12,1.64992e+12,1.65e+12,0,93,2305985,0,"0"
"12-003","YA","D",95,2,"stable","low","2","4","2",8,1647,822,538,"0","0","0","4","3","2","1","1","2",9,8,1.64992e+12,1.64992e+12,1.64992e+12,1.64992e+12,1.64992e+12,1.64992e+12,1.64992e+12,1.65e+12,0,94,2316610,-0.5,"0"
"12-003","YA","D",96,2,"stable","low","1","1","2",6,1653,653,488,"0","0","0","2","1","2","1","1","2",8,6,1.64992e+12,1.64992e+12,1.64992e+12,1.64992e+12,1.64992e+12,1.64992e+12,1.64992e+12,1.65e+12,0,95,2326832,-1,"0"
"12-003","YA","D",97,2,"stable","low","1","2","1",8,1661,863,52,"0","0","0","1","2","2","1","1","2",8,8,1.64992e+12,1.64992e+12,1.64992e+12,1.64992e+12,1.64992e+12,1.64992e+12,1.64992e+12,1.65e+12,0,96,2337456,0,"0"
"12-003","YA","D",98,2,"stable","high","1","2","1",8,1701,687,451,"0","0","0","2","1","2","1","1","2",8,2,1.64992e+12,1.64992e+12,1.64992e+12,1.64992e+12,1.64992e+12,1.64992e+12,1.64992e+12,1.65e+12,0,97,2348081,3,"0"
"12-003","YA","D",99,2,"stable","low","2","3","1",7,1708,1013,679,"0","0","0","3","4","2","1","1","2",7,2,1.64992e+12,1.64992e+12,1.64992e+12,1.64992e+12,1.64992e+12,1.64992e+12,1.64992e+12,1.65e+12,0,98,2358504,2.5,"0"
"12-003","YA","D",100,2,"stable","high","2","4","2",1,1713,735,506,"0","0","0","4","3","2","1","1","2",6,1,1.64992e+12,1.64992e+12,1.64992e+12,1.64992e+12,1.64992e+12,1.64992e+12,1.64992e+12,1.65e+12,0,99,2367718,-2.5,"0"
"12-003","YA","D",101,2,"stable","low","2","3","1",7,1720,529,547,"0","0","0","4","3","2","1","1","2",7,1,1.64992e+12,1.64992e+12,1.64992e+12,1.64992e+12,1.64992e+12,1.64992e+12,1.64992e+12,1.65e+12,0,100,2378143,3,"0"
"12-003","YA","D",102,2,"stable","low","1","2","1",5,1725,551,488,"0","0","0","2","1","2","1","1","2",5,5,1.64992e+12,1.64992e+12,1.64992e+12,1.64992e+12,1.64992e+12,1.64992e+12,1.64992e+12,1.65e+12,0,101,2388168,0,"0"
"12-003","YA","D",103,2,"stable","high","1","2","1",3,1740,695,619,"0","0","0","2","1","2","1","1","2",3,3,1.64992e+12,1.64992e+12,1.64992e+12,1.64992e+12,1.64992e+12,1.64992e+12,1.64992e+12,1.65e+12,0,102,2397785,0,"0"
"12-003","YA","D",104,2,"stable","low","2","3","1",0,1740,718,73,"0","0","0","3","4","2","1","1","2",0,3,1.64992e+12,1.64992e+12,1.64992e+12,1.64992e+12,1.64992e+12,1.64992e+12,1.64992e+12,1.65e+12,0,103,2406797,-1.5,"0"
"12-003","YA","D",105,2,"stable","low","1","1","2",3,1743,753,548,"0","0","0","2","1","2","1","1","2",2,3,1.64992e+12,1.64992e+12,1.64992e+12,1.64992e+12,1.64992e+12,1.64992e+12,1.64992e+12,1.65e+12,0,104,2416418,0.5,"0"
"12-003","YA","D",106,2,"stable","low","1","2","1",2,1745,853,598,"0","0","0","1","2","2","1","1","2",2,3,1.64992e+12,1.64992e+12,1.64992e+12,1.64992e+12,1.64992e+12,1.64992e+12,1.64992e+12,1.65e+12,0,105,2425837,-0.5,"0"
"12-003","YA","D",107,2,"stable","high","2","4","2",1,1750,713,605,"0","0","0","4","3","2","1","1","2",6,1,1.64992e+12,1.64992e+12,1.64992e+12,1.64992e+12,1.64992e+12,1.64992e+12,1.64992e+12,1.65e+12,0,106,2435049,-2.5,"0"
"12-003","YA","D",108,2,"stable","high","1","1","2",1,1755,639,496,"0","0","0","2","1","2","1","1","2",7,1,1.64992e+12,1.64992e+12,1.64992e+12,1.64992e+12,1.64992e+12,1.64992e+12,1.64992e+12,1.65e+12,0,107,2444264,-3,"0"
"12-003","YA","D",109,2,"stable","low","1","2","1",7,1762,1287,632,"0","0","0","2","1","2","1","1","2",7,1,1.64992e+12,1.64992e+12,1.64992e+12,1.64992e+12,1.64992e+12,1.64992e+12,1.64992e+12,1.65e+12,0,108,2454690,3,"0"
"12-003","YA","D",110,2,"stable","high","2","3","1",6,1792,597,625,"0","0","0","4","3","2","1","1","2",6,4,1.64992e+12,1.64992e+12,1.64992e+12,1.64992e+12,1.64992e+12,1.64992e+12,1.64992e+12,1.65e+12,0,109,2464910,1,"0"
"12-003","YA","D",111,2,"stable","high","1","2","1",4,1812,720,524,"0","0","0","1","2","2","1","1","2",4,8,1.64992e+12,1.64992e+12,1.64992e+12,1.64992e+12,1.64992e+12,1.64992e+12,1.64992e+12,1.65e+12,0,110,2474728,-2,"0"
"12-003","YA","D",112,2,"stable","low","1","1","2",7,1819,742,606,"0","0","0","1","2","2","1","1","2",7,7,1.64992e+12,1.64992e+12,1.64992e+12,1.64992e+12,1.64992e+12,1.64992e+12,1.64992e+12,1.65e+12,0,111,2485159,0,"0"
"12-003","YA","D",113,2,"stable","high","1","1","2",6,1849,1088,808,"0","0","0","1","2","2","1","1","2",6,6,1.64992e+12,1.64992e+12,1.64992e+12,1.64992e+12,1.64992e+12,1.64992e+12,1.64992e+12,1.65e+12,0,112,2495384,0,"0"
"12-003","YA","D",114,2,"stable","high","2","4","2",5,1874,1151,531,"0","0","0","3","4","2","1","1","2",6,5,1.64992e+12,1.64992e+12,1.64992e+12,1.64992e+12,1.64992e+12,1.64992e+12,1.64992e+12,1.65e+12,0,113,2505405,-0.5,"0"
"12-003","YA","D",115,2,"stable","low","1","1","2",3,1877,914,621,"0","0","0","1","2","2","1","1","2",8,3,1.64992e+12,1.64992e+12,1.64992e+12,1.64992e+12,1.64992e+12,1.64992e+12,1.64992e+12,1.65e+12,0,114,2515022,-2.5,"0"
"12-003","YA","D",116,2,"stable","high","1","2","1",7,1912,761,476,"0","0","0","2","1","2","1","1","2",7,3,1.64992e+12,1.64992e+12,1.64992e+12,1.64992e+12,1.64992e+12,1.64992e+12,1.64992e+12,1.65e+12,0,115,2525447,2,"0"
"12-003","YA","D",117,2,"stable","high","2","3","1",8,1952,735,627,"0","0","0","4","3","2","1","1","2",8,4,1.64992e+12,1.64992e+12,1.64992e+12,1.64992e+12,1.64992e+12,1.64992e+12,1.64992e+12,1.65e+12,0,116,2536071,2,"0"
"12-003","YA","D",118,2,"stable","high","1","2","1",7,1987,656,515,"0","0","0","1","2","2","1","1","2",7,4,1.64992e+12,1.64992e+12,1.64992e+12,1.64992e+12,1.64992e+12,1.64992e+12,1.64992e+12,1.65e+12,0,117,2546497,1.5,"0"
"12-003","YA","D",119,2,"stable","high","2","3","1",6,2017,894,633,"0","0","0","3","4","2","1","1","2",6,1,1.64992e+12,1.64992e+12,1.64992e+12,1.64992e+12,1.64992e+12,1.64992e+12,1.64992e+12,1.65e+12,0,118,2556721,2.5,"0"
"12-003","YA","D",120,2,"stable","high","1","2","1",7,2052,870,561,"0","0","0","1","2","2","1","1","2",7,1,1.64992e+12,1.64992e+12,1.64992e+12,1.64992e+12,1.64992e+12,1.64992e+12,1.64992e+12,1.65e+12,0,119,2567146,3,"0"
"12-003","YA","D",121,2,"stable","high","2","3","1",7,2087,894,455,"0","0","0","3","4","2","1","1","2",7,3,1.64992e+12,1.64992e+12,1.64992e+12,1.64992e+12,1.64992e+12,1.64992e+12,1.64992e+12,1.65e+12,0,120,2577571,2,"0"
"12-003","YA","D",122,2,"stable","low","1","2","1",9,2096,909,670,"0","0","0","2","1","2","1","1","2",9,3,1.64992e+12,1.64992e+12,1.64992e+12,1.64992e+12,1.64992e+12,1.64992e+12,1.64992e+12,1.65e+12,0,121,2588398,3,"0"
"12-003","YA","D",123,2,"stable","low","2","4","2",3,2099,1330,884,"0","0","0","3","4","2","1","1","2",8,3,1.64992e+12,1.64992e+12,1.64992e+12,1.64992e+12,1.64992e+12,1.64992e+12,1.64992e+12,1.65e+12,0,122,2598014,-2.5,"0"
"12-003","YA","D",124,2,"stable","low","1","2","1",8,2107,816,787,"0","0","0","1","2","2","1","1","2",8,4,1.64992e+12,1.64992e+12,1.64992e+12,1.64992e+12,1.64992e+12,1.64992e+12,1.64992e+12,1.65e+12,0,123,2608641,2,"0"
"12-003","YA","D",125,2,"stable","low","1","2","1",6,2113,743,571,"0","0","0","2","1","2","1","1","2",6,3,1.64992e+12,1.64992e+12,1.64992e+12,1.64992e+12,1.64992e+12,1.64992e+12,1.64992e+12,1.65e+12,0,124,2618861,1.5,"0"
"12-003","YA","D",126,2,"stable","low","2","3","1",7,2120,745,676,"0","0","0","4","3","2","1","1","2",7,4,1.64992e+12,1.64992e+12,1.64992e+12,1.64992e+12,1.64992e+12,1.64992e+12,1.64992e+12,1.65e+12,0,125,2629285,1.5,"0"
"12-003","YA","D",127,2,"stable","high","1","2","1",7,2155,944,652,"0","0","0","2","1","2","1","1","2",7,7,1.64992e+12,1.64992e+12,1.64992e+12,1.64992e+12,1.64992e+12,1.64992e+12,1.64992e+12,1.65e+12,0,126,2639709,0,"0"
"12-003","YA","D",128,2,"stable","low","1","1","2",6,2161,1344,698,"0","0","0","1","2","2","1","1","2",5,6,1.64992e+12,1.64992e+12,1.64992e+12,1.64992e+12,1.64992e+12,1.64992e+12,1.64992e+12,1.65e+12,0,127,2649934,0.5,"0"
"12-003","YA","D",129,2,"stable","low","1","1","2",8,2169,727,675,"0","0","0","2","1","2","1","1","2",6,8,1.64992e+12,1.64992e+12,1.64992e+12,1.64992e+12,1.64992e+12,1.64992e+12,1.64992e+12,1.65e+12,0,128,2660561,1,"0"
"12-003","YA","D",130,2,"stable","low","2","4","2",7,2176,597,559,"0","0","0","4","3","2","1","1","2",7,7,1.64992e+12,1.64992e+12,1.64992e+12,1.64992e+12,1.64992e+12,1.64992e+12,1.64992e+12,1.65e+12,0,129,2670988,0,"0"
"12-003","YA","D",131,2,"stable","high","1","2","1",7,2211,1026,901,"0","0","0","2","1","2","1","1","2",7,6,1.64992e+12,1.64992e+12,1.64992e+12,1.64992e+12,1.64992e+12,1.64992e+12,1.64992e+12,1.65e+12,0,130,2681413,0.5,"0"
"12-003","YA","D",132,2,"stable","low","2","3","1",8,2219,626,422,"0","0","0","3","4","2","1","1","2",8,7,1.64992e+12,1.64992e+12,1.64992e+12,1.64992e+12,1.64992e+12,1.64992e+12,1.64992e+12,1.65e+12,0,131,2692038,0.5,"0"
"12-003","YA","D",133,2,"stable","high","2","3","1",7,2254,744,603,"0","0","0","3","4","2","1","1","2",7,8,1.64992e+12,1.64992e+12,1.64992e+12,1.64992e+12,1.64992e+12,1.64992e+12,1.64992e+12,1.65e+12,0,132,2702466,-0.5,"0"
"12-003","YA","D",134,2,"stable","high","1","1","2",8,2294,685,783,"0","0","0","1","2","2","1","1","2",7,8,1.64992e+12,1.64992e+12,1.64992e+12,1.64992e+12,1.64992e+12,1.64992e+12,1.64992e+12,1.65e+12,0,133,2713093,0.5,"0"
"12-003","YA","D",135,2,"stable","high","2","4","2",8,2334,730,748,"0","0","0","4","3","2","1","1","2",6,8,1.64992e+12,1.64992e+12,1.64992e+12,1.64992e+12,1.64992e+12,1.64992e+12,1.64992e+12,1.65e+12,0,134,2723719,1,"0"
"12-003","YA","D",136,2,"stable","high","1","1","2",5,2359,672,659,"0","0","0","1","2","2","1","1","2",5,5,1.64992e+12,1.64992e+12,1.64992e+12,1.64992e+12,1.64992e+12,1.64992e+12,1.64992e+12,1.65e+12,0,135,2733739,0,"0"
"12-003","YA","D",137,2,"stable","high","1","1","2",8,2399,852,590,"0","0","0","1","2","2","1","1","2",0,8,1.64992e+12,1.64992e+12,1.64992e+12,1.64992e+12,1.64992e+12,1.64992e+12,1.64992e+12,1.65e+12,0,136,2744366,4,"0"
"12-003","YA","D",138,2,"stable","high","2","4","2",7,2434,695,624,"0","0","0","4","3","2","1","1","2",1,7,1.64992e+12,1.64992e+12,1.64992e+12,1.64992e+12,1.64992e+12,1.64992e+12,1.64992e+12,1.65e+12,0,137,2754793,3,"0"
"12-003","YA","D",139,2,"stable","low","1","1","2",6,2440,940,478,"0","0","0","2","1","2","1","1","2",2,6,1.64992e+12,1.64992e+12,1.64992e+12,1.64992e+12,1.64992e+12,1.64992e+12,1.64992e+12,1.65e+12,0,138,2765017,2,"0"
"12-003","YA","D",140,2,"stable","low","1","1","2",5,2445,788,511,"0","0","0","2","1","2","1","1","2",0,5,1.64992e+12,1.64992e+12,1.64992e+12,1.64992e+12,1.64992e+12,1.64992e+12,1.64992e+12,1.65e+12,0,139,2775040,2.5,"0"
"12-003","YA","D",141,2,"stable","low","1","1","2",4,2449,989,494,"0","0","0","1","2","2","1","1","2",0,4,1.64992e+12,1.64992e+12,1.64992e+12,1.64992e+12,1.64992e+12,1.64992e+12,1.64992e+12,1.65e+12,0,140,2784863,2,"0"
