"id","age_group","version","trial","block","transitions","stake","s1","choice","s2","points","score","rt1","rt2","timeout1","timeout2","timeout","stimulus_left","stimulus_right","destination1","destination2","destination3","destination4","reward1","reward2","timestamp_stake","timestamp_stakeDisappear","timestamp_spaceship","timestamp_spaceshipResponse","timestamp_monster","timestamp_monsterResponse","timestamp_reward","timestamp_end","practice","trial_index","time_elapsed"
"101","YA","A",1,1,"stable",5,2,4,2,0,0,845,-1,0,1,1,3,4,1,2,1,2,6,2,1649901214781,1649901216283,1649901216785,1649901217631,1649901218791,0,0,"1649901223297",0,0,1569549
"101","YA","A",2,1,"stable",5,1,2,2,6,30,1194,133,0,0,0,2,1,1,2,1,2,3,6,1649901223298,1649901224799,1649901225301,1649901226495,1649901227306,1649901227439,1649901229308,"1649901233520",0,1,1579772
"101","YA","A",3,1,"stable",5,1,2,2,3,45,677,358,0,0,0,1,2,1,2,1,2,2,3,1649901233520,1649901235022,1649901235522,1649901236199,1649901237529,1649901237887,1649901239531,"1649901243138",0,2,1589390
"101","YA","A",4,1,"stable",5,1,1,1,4,65,923,414,0,0,0,2,1,1,2,1,2,4,4,1649901243139,1649901244640,1649901245140,1649901246064,1649901247144,1649901247559,1649901249146,"1649901252956",0,3,1599208
"101","YA","A",5,1,"stable",1,2,3,1,4,69,625,690,0,0,0,4,3,1,2,1,2,4,3,1649901252956,1649901254457,1649901254959,1649901255584,1649901256965,1649901257656,1649901258966,"1649901262776",0,4,1609028
"101","YA","A",6,1,"stable",1,1,2,2,4,73,394,564,0,0,0,1,2,1,2,1,2,6,4,1649901262777,1649901264279,1649901264780,1649901265175,1649901266787,1649901267351,1649901268789,"1649901272598",0,5,1618850
"101","YA","A",7,1,"stable",1,1,1,1,7,80,1015,344,0,0,0,2,1,1,2,1,2,7,3,1649901272598,1649901274100,1649901274601,1649901275616,1649901276606,1649901276952,1649901278608,"1649901283021",0,6,1629273
"101","YA","A",8,1,"stable",5,1,1,1,5,105,798,544,0,0,0,2,1,1,2,1,2,5,3,1649901283021,1649901284523,1649901285024,1649901285823,1649901287031,1649901287575,1649901289033,"1649901293043",0,7,1639295
"101","YA","A",9,1,"stable",1,1,1,1,9,114,729,155,0,0,0,2,1,1,2,1,2,9,2,1649901293044,1649901294545,1649901295046,1649901295776,1649901297051,1649901297207,1649901299054,"1649901303873",0,8,1650125
"101","YA","A",10,1,"stable",1,1,1,1,7,121,731,453,0,0,0,1,2,1,2,1,2,7,9,1649901303874,1649901305375,1649901305876,1649901306607,1649901307882,1649901308335,1649901309884,"1649901314296",0,9,1660548
"101","YA","A",11,1,"stable",1,2,4,2,7,128,1123,108,0,0,0,3,4,1,2,1,2,7,7,1649901314297,1649901315799,1649901316300,1649901317424,1649901318306,1649901318415,1649901320308,"1649901324721",0,10,1670974
"101","YA","A",12,1,"stable",1,1,2,2,6,134,593,603,0,0,0,2,1,1,2,1,2,8,6,1649901324722,1649901326223,1649901326725,1649901327319,1649901328733,1649901329336,1649901330734,"1649901334946",0,11,1681198
"101","YA","A",13,1,"stable",5,2,4,2,4,154,1106,2,0,0,0,3,4,1,2,1,2,6,4,1649901334947,1649901336449,1649901336950,1649901338057,1649901338956,1649901338959,1649901340959,"1649901344769",0,12,1691021
"101","YA","A",14,1,"stable",1,1,1,1,7,161,1146,163,0,0,0,2,1,1,2,1,2,7,5,1649901344770,1649901346271,1649901346772,1649901347919,1649901348779,1649901348943,1649901350781,"1649901355197",0,13,1701449
"101","YA","A",15,1,"stable",1,2,4,2,4,165,1200,495,0,0,0,4,3,1,2,1,2,5,4,1649901355198,1649901356699,1649901357200,1649901358401,1649901359207,1649901359703,1649901361210,"1649901365020",0,14,1711272
"101","YA","A",16,1,"stable",1,1,-1,-1,0,165,-1,-1,1,0,1,1,2,1,2,1,2,2,6,1649901365020,1649901366521,1649901367023,0,0,0,0,"1649901371526",0,15,1717778
"101","YA","A",17,1,"stable",1,2,3,1,1,166,669,61,0,0,0,4,3,1,2,1,2,1,6,1649901371526,1649901373028,1649901373529,1649901374199,1649901375536,1649901375598,1649901377539,"1649901380744",0,16,1726996
"101","YA","A",18,1,"stable",5,1,2,2,6,196,387,173,0,0,0,2,1,1,2,1,2,1,6,1649901380745,1649901382246,1649901382747,1649901383135,1649901384752,1649901384926,1649901386755,"1649901390965",0,17,1737217
"101","YA","A",19,1,"stable",1,2,3,1,1,197,509,413,0,0,0,3,4,1,2,1,2,1,6,1649901390966,1649901392468,1649901392969,1649901393479,1649901394976,1649901395391,1649901396979,"1649901400185",0,18,1746437
"101","YA","A",20,1,"stable",5,1,1,1,1,202,1001,136,0,0,0,2,1,1,2,1,2,1,2,1649901400186,1649901401688,1649901402188,1649901403190,1649901404197,1649901404334,1649901406200,"1649901409407",0,19,1755659
"101","YA","A",21,1,"stable",5,2,4,2,2,212,524,207,0,0,0,4,3,1,2,1,2,5,2,1649901409408,1649901410909,1649901411410,1649901411935,1649901413415,1649901413623,1649901415417,"1649901418823",0,20,1765076
"101","YA","A",22,1,"stable",1,2,4,2,5,217,538,91,0,0,0,4,3,1,2,1,2,6,5,1649901418824,1649901420325,1649901420827,1649901421366,1649901422835,1649901422927,1649901424836,"1649901428845",0,21,1775097
"101","YA","A",23,1,"stable",1,1,2,2,9,226,909,472,0,0,0,1,2,1,2,1,2,8,9,1649901428846,1649901430348,1649901430849,1649901431759,1649901432854,1649901433327,1649901434857,"1649901439677",0,22,1785929
"101","YA","A",24,1,"stable",5,2,3,1,7,261,710,455,0,0,0,3,4,1,2,1,2,7,4,1649901439678,1649901441179,1649901441680,1649901442391,1649901443687,1649901444143,1649901445689,"1649901450103",0,23,1796355
"101","YA","A",25,1,"stable",5,2,3,1,8,301,739,54,0,0,0,4,3,1,2,1,2,8,2,1649901450104,1649901451605,1649901452106,1649901452847,1649901454112,1649901454167,1649901456115,"1649901460727",0,24,1806979
"101","YA","A",26,1,"stable",5,2,4,2,1,306,1149,79,0,0,0,3,4,1,2,1,2,8,1,1649901460727,1649901462229,1649901462730,1649901463879,1649901464735,1649901464815,1649901466737,"1649901469943",0,25,1816195
"101","YA","A",27,1,"stable",1,1,1,1,8,314,1493,230,0,0,0,1,2,1,2,1,2,8,1,1649901469943,1649901471444,1649901471945,1649901473440,1649901473952,1649901474183,1649901475954,"1649901480568",0,26,1826820
"101","YA","A",28,1,"stable",1,2,3,1,4,318,484,359,0,0,0,3,4,1,2,1,2,4,2,1649901480569,1649901482070,1649901482571,1649901483055,1649901484575,1649901484935,1649901486578,"1649901490385",0,27,1836637
"101","YA","A",29,1,"stable",5,1,2,2,5,343,665,283,0,0,0,2,1,1,2,1,2,8,5,1649901490386,1649901491888,1649901492389,1649901493055,1649901494396,1649901494679,1649901496397,"1649901500405",0,28,1846657
"101","YA","A",30,1,"stable",1,1,2,2,4,347,528,1,0,0,0,1,2,1,2,1,2,8,4,1649901500406,1649901501906,1649901502407,1649901502935,1649901504413,1649901504415,1649901506415,"1649901510225",0,29,1856477
"101","YA","A",31,1,"stable",5,2,3,1,5,372,674,220,0,0,0,3,4,1,2,1,2,5,6,1649901510226,1649901511727,1649901512229,1649901512903,1649901514234,1649901514455,1649901516236,"1649901520251",0,30,1866503
"101","YA","A",32,1,"stable",5,2,3,1,0,372,760,74,0,0,0,4,3,1,2,1,2,0,4,1649901520251,1649901521753,1649901522254,1649901523015,1649901524261,1649901524335,1649901526262,"1649901529266",0,31,1875518
"101","YA","A",33,1,"stable",5,1,1,1,5,397,866,84,0,0,0,2,1,1,2,1,2,5,3,1649901529267,1649901530768,1649901531269,1649901532135,1649901533274,1649901533359,1649901535276,"1649901539286",0,32,1885538
"101","YA","A",34,1,"stable",1,1,2,2,3,400,613,511,0,0,0,2,1,1,2,1,2,6,3,1649901539287,1649901540789,1649901541290,1649901541903,1649901543295,1649901543807,1649901545296,"1649901548904",0,33,1895156
"101","YA","A",35,1,"stable",5,2,4,2,2,410,491,446,0,0,0,3,4,1,2,1,2,8,2,1649901548905,1649901550406,1649901550907,1649901551399,1649901552911,1649901553358,1649901554914,"1649901558320",0,34,1904572
"101","YA","A",36,1,"stable",1,2,3,1,8,418,586,11,0,0,0,3,4,1,2,1,2,8,2,1649901558321,1649901559823,1649901560324,1649901560911,1649901562330,1649901562342,1649901564333,"1649901568946",0,35,1915198
"101","YA","A",37,1,"stable",5,2,3,1,5,443,520,313,0,0,0,4,3,1,2,1,2,5,2,1649901568946,1649901570448,1649901570950,1649901571471,1649901572956,1649901573270,1649901574959,"1649901578970",0,36,1925222
"101","YA","A",38,1,"stable",5,1,1,1,5,468,848,195,0,0,0,1,2,1,2,1,2,5,7,1649901578970,1649901580472,1649901580973,1649901581822,1649901582979,1649901583174,1649901584981,"1649901588989",0,37,1935241
"101","YA","A",39,1,"stable",5,2,3,1,6,498,461,607,0,0,0,3,4,1,2,1,2,6,6,1649901588990,1649901590491,1649901590993,1649901591454,1649901593000,1649901593607,1649901595001,"1649901599213",0,38,1945465
"101","YA","A",40,1,"stable",5,1,1,1,7,533,730,140,0,0,0,1,2,1,2,1,2,7,8,1649901599217,1649901600718,1649901601220,1649901601950,1649901603226,1649901603366,1649901605227,"1649901609639",0,39,1955891
"101","YA","A",41,1,"stable",1,2,3,1,6,539,844,798,0,0,0,4,3,1,2,1,2,6,7,1649901609640,1649901611140,1649901611641,1649901612486,1649901613647,1649901614446,1649901615650,"1649901619862",0,40,1966114
"101","YA","A",42,1,"stable",5,2,3,1,1,544,492,223,0,0,0,3,4,1,2,1,2,1,7,1649901619863,1649901621364,1649901621865,1649901622358,1649901623872,1649901624095,1649901625872,"1649901629077",0,41,1975329
"101","YA","A",43,1,"stable",5,2,4,2,5,569,477,559,0,0,0,4,3,1,2,1,2,2,5,1649901629077,1649901630579,1649901631081,1649901631558,1649901633086,1649901633646,1649901635089,"1649901639098",0,42,1985350
"101","YA","A",44,1,"stable",1,2,4,2,7,576,585,80,0,0,0,4,3,1,2,1,2,2,7,1649901639099,1649901640600,1649901641101,1649901641686,1649901643108,1649901643188,1649901645109,"1649901649522",0,43,1995774
"101","YA","A",45,1,"stable",1,2,3,1,3,579,879,265,0,0,0,4,3,1,2,1,2,3,8,1649901649523,1649901651025,1649901651526,1649901652406,1649901653533,1649901653799,1649901655535,"1649901659142",0,44,2005394
"101","YA","A",46,1,"stable",1,2,4,2,8,587,556,311,0,0,0,3,4,1,2,1,2,7,8,1649901659143,1649901660644,1649901661145,1649901661702,1649901663150,1649901663462,1649901665152,"1649901669765",0,45,2016017
"101","YA","A",47,1,"stable",5,1,2,2,9,632,847,186,0,0,0,1,2,1,2,1,2,1,9,1649901669765,1649901671266,1649901671768,1649901672615,1649901673773,1649901673959,1649901675774,"1649901680591",0,46,2026843
"101","YA","A",48,1,"stable",5,2,4,2,9,677,843,382,0,0,0,4,3,1,2,1,2,1,9,1649901680592,1649901682093,1649901682594,1649901683438,1649901684600,1649901684983,1649901686603,"1649901691418",0,47,2037670
"101","YA","A",49,1,"stable",5,2,4,2,6,707,687,434,0,0,0,4,3,1,2,1,2,1,6,1649901691419,1649901692921,1649901693422,1649901694110,1649901695428,1649901695862,1649901697429,"1649901701644",0,48,2047896
"101","YA","A",50,1,"stable",5,2,4,2,7,742,510,920,0,0,0,4,3,1,2,1,2,0,7,1649901701645,1649901703146,1649901703647,1649901704158,1649901705653,1649901706574,1649901707656,"1649901712071",0,49,2058323
"101","YA","A",51,1,"stable",5,1,2,2,6,772,921,242,0,0,0,2,1,1,2,1,2,2,6,1649901712073,1649901713575,1649901714076,1649901714998,1649901716084,1649901716326,1649901718086,"1649901722298",0,50,2068550
"101","YA","A",52,1,"stable",5,2,4,2,4,792,806,448,0,0,0,4,3,1,2,1,2,0,4,1649901722299,1649901723801,1649901724303,1649901725110,1649901726308,1649901726758,1649901728312,"1649901732121",0,51,2078373
"101","YA","A",53,1,"stable",5,2,4,2,5,817,832,26,0,0,0,3,4,1,2,1,2,4,5,1649901732122,1649901733624,1649901734126,1649901734959,1649901736133,1649901736159,1649901738134,"1649901742144",0,52,2088396
"101","YA","A",54,1,"stable",1,2,4,2,5,822,827,95,0,0,0,4,3,1,2,1,2,4,5,1649901742145,1649901743646,1649901744147,1649901744975,1649901746152,1649901746247,1649901748153,"1649901752164",0,53,2098416
"101","YA","A",55,1,"stable",5,1,2,2,8,862,854,368,0,0,0,1,2,1,2,1,2,6,8,1649901752165,1649901753667,1649901754168,1649901755023,1649901756174,1649901756543,1649901758176,"1649901762788",0,54,2109040
"101","YA","A",56,1,"stable",1,1,2,2,6,868,598,114,0,0,0,2,1,1,2,1,2,5,6,1649901762789,1649901764290,1649901764792,1649901765391,1649901766796,1649901766911,1649901768798,"1649901773011",0,55,2119263
"101","YA","A",57,1,"stable",5,1,2,2,8,908,983,288,0,0,0,2,1,1,2,1,2,5,8,1649901773013,1649901774514,1649901775015,1649901775999,1649901777021,1649901777311,1649901779024,"1649901783643",0,56,2129895
"101","YA","A",58,1,"stable",1,2,4,2,8,916,721,73,0,0,0,3,4,1,2,1,2,5,8,1649901783644,1649901785145,1649901785647,1649901786368,1649901787653,1649901787727,1649901789656,"1649901794267",0,57,2140519
"101","YA","A",59,1,"stable",5,1,2,2,8,956,648,467,0,0,0,1,2,1,2,1,2,4,8,1649901794268,1649901795770,1649901796270,1649901796919,1649901798276,1649901798743,1649901800277,"1649901804889",0,58,2151141
"101","YA","A",60,1,"stable",1,2,4,2,8,964,595,255,0,0,0,3,4,1,2,1,2,3,8,1649901804890,1649901806390,1649901806891,1649901807487,1649901808896,1649901809151,1649901810898,"1649901815511",0,59,2161763
"101","YA","A",61,1,"stable",1,1,2,2,8,972,484,565,0,0,0,1,2,1,2,1,2,3,8,1649901815512,1649901817013,1649901817515,1649901817999,1649901819522,1649901820087,1649901821523,"1649901826134",0,60,2172386
"101","YA","A",62,1,"stable",1,1,2,2,9,981,525,558,0,0,0,2,1,1,2,1,2,1,9,1649901826135,1649901827637,1649901828138,1649901828663,1649901830144,1649901830703,1649901832146,"1649901836960",0,61,2183212
"101","YA","A",63,1,"stable",1,2,4,2,8,989,674,1307,0,0,0,3,4,1,2,1,2,4,8,1649901836962,1649901838463,1649901838964,1649901839639,1649901840971,1649901842279,1649901842972,"1649901847585",0,62,2193837
"101","YA","A",64,1,"stable",1,2,4,2,4,993,475,486,0,0,0,4,3,1,2,1,2,5,4,1649901847586,1649901849086,1649901849588,1649901850063,1649901851592,1649901852079,1649901853594,"1649901857403",0,63,2203655
"101","YA","A",65,1,"stable",1,1,1,1,9,1002,640,473,0,0,0,2,1,1,2,1,2,9,5,1649901857404,1649901858905,1649901859406,1649901860047,1649901861414,1649901861887,1649901863415,"1649901868230",0,64,2214482
"101","YA","A",66,1,"stable",5,1,1,1,8,1042,1077,183,0,0,0,1,2,1,2,1,2,8,7,1649901868231,1649901869732,1649901870233,1649901871311,1649901872239,1649901872423,1649901874240,"1649901878857",0,65,2225109
"101","YA","A",67,1,"stable",1,2,3,1,8,1050,675,654,0,0,0,3,4,1,2,1,2,8,8,1649901878858,1649901880359,1649901880860,1649901881535,1649901882864,1649901883519,1649901884865,"1649901889483",0,66,2235735
"101","YA","A",68,1,"stable",1,2,3,1,7,1057,469,112,0,0,0,4,3,1,2,1,2,7,8,1649901889486,1649901890988,1649901891489,1649901891959,1649901893494,1649901893607,1649901895495,"1649901899906",0,67,2246159
"101","YA","A",69,1,"stable",5,2,3,1,9,1102,856,472,0,0,0,3,4,1,2,1,2,9,8,1649901899908,1649901901409,1649901901910,1649901902767,1649901903917,1649901904390,1649901905920,"1649901910738",0,68,2256990
"101","YA","A",70,1,"stable",5,2,3,1,8,1142,513,676,0,0,0,4,3,1,2,1,2,8,8,1649901910739,1649901912240,1649901912741,1649901913255,1649901914747,1649901915423,1649901916749,"1649901921366",0,69,2267618
"101","YA","A",71,1,"stable",1,1,2,2,8,1150,1180,566,0,0,0,1,2,1,2,1,2,6,8,1649901921367,1649901922869,1649901923370,1649901924551,1649901925376,1649901925943,1649901927377,"1649901931991",0,70,2278243
"101","YA","A",72,1,"stable",1,2,3,1,7,1157,468,14,0,0,0,3,4,1,2,1,2,7,6,1649901931992,1649901933493,1649901933995,1649901934463,1649901936000,1649901936015,1649901938002,"1649901942416",0,71,2288668
"101","YA","A",73,1,"stable",1,1,1,1,6,1163,634,443,0,0,0,2,1,1,2,1,2,6,5,1649901942418,1649901943919,1649901944420,1649901945055,1649901946427,1649901946871,1649901948428,"1649901952640",0,72,2298892
"101","YA","A",74,1,"stable",1,1,2,2,5,1168,643,470,0,0,0,1,2,1,2,1,2,2,5,1649901952641,1649901954142,1649901954643,1649901955287,1649901956649,1649901957119,1649901958649,"1649901962661",0,73,2308913
"101","YA","A",75,1,"stable",5,1,1,1,1,1173,575,544,0,0,0,1,2,1,2,1,2,1,6,1649901962662,1649901964163,1649901964664,1649901965239,1649901966670,1649901967215,1649901968672,"1649901971876",0,74,2318128
"101","YA","A",76,1,"stable",5,1,2,2,8,1213,805,143,0,0,0,1,2,1,2,1,2,1,8,1649901971878,1649901973379,1649901973881,1649901974687,1649901975887,1649901976030,1649901977889,"1649901982502",0,75,2328754
"101","YA","A",77,1,"stable",5,1,2,2,7,1248,572,295,0,0,0,1,2,1,2,1,2,2,7,1649901982503,1649901984005,1649901984506,1649901985078,1649901986510,1649901986806,1649901988513,"1649901992925",0,76,2339177
"101","YA","A",78,1,"stable",1,1,2,2,6,1254,645,926,0,0,0,2,1,1,2,1,2,0,6,1649901992927,1649901994428,1649901994928,1649901995574,1649901996936,1649901997862,1649901998938,"1649902003149",0,77,2349401
"101","YA","A",79,1,"stable",1,1,2,2,2,1256,619,428,0,0,0,1,2,1,2,1,2,3,2,1649902003151,1649902004652,1649902005154,1649902005774,1649902007162,1649902007590,1649902009163,"1649902012570",0,78,2358822
"101","YA","A",80,1,"stable",5,1,1,1,6,1286,561,107,0,0,0,2,1,1,2,1,2,6,3,1649902012571,1649902014072,1649902014573,1649902015134,1649902016579,1649902016687,1649902018582,"1649902022794",0,79,2369046
"101","YA","A",81,2,"variable",1,1,1,1,6,1292,399,1489,0,0,0,1,2,1,2,2,1,6,1,1649902150531,1649902152032,1649902152534,1649902152934,1649902154540,1649902156030,1649902156542,"1649902160754",0,80,2507006
"101","YA","A",82,2,"variable",1,1,1,1,8,1300,624,689,0,0,0,2,1,1,2,2,1,8,1,1649902160755,1649902162256,1649902162757,1649902163382,1649902164764,1649902165454,1649902166767,"1649902171384",0,81,2517636
"101","YA","A",83,2,"variable",1,2,4,1,6,1306,705,762,0,0,0,3,4,1,2,2,1,6,4,1649902171385,1649902172887,1649902173388,1649902174094,1649902175395,1649902176158,1649902177397,"1649902181608",0,82,2527860
"101","YA","A",84,2,"variable",5,1,1,1,9,1351,1338,414,0,0,0,2,1,1,2,2,1,9,2,1649902181610,1649902183111,1649902183612,1649902184950,1649902185616,1649902186030,1649902187617,"1649902192434",0,83,2538686
"101","YA","A",85,2,"variable",1,2,4,1,7,1358,767,522,0,0,0,3,4,1,2,2,1,7,4,1649902192435,1649902193937,1649902194438,1649902195206,1649902196444,1649902196967,1649902198446,"1649902202858",0,84,2549110
"101","YA","A",86,2,"variable",1,1,1,1,9,1367,767,272,0,0,0,2,1,1,2,2,1,9,7,1649902202860,1649902204361,1649902204863,1649902205631,1649902206870,1649902207142,1649902208872,"1649902213690",0,85,2559942
"101","YA","A",87,2,"variable",5,1,1,1,9,1412,600,483,0,0,0,1,2,1,2,2,1,9,7,1649902213691,1649902215192,1649902215694,1649902216294,1649902217699,1649902218182,1649902219701,"1649902224516",0,86,2570768
"101","YA","A",88,2,"variable",1,2,3,2,8,1420,596,622,0,0,0,3,4,1,2,2,1,6,8,1649902224519,1649902226021,1649902226522,1649902227118,1649902228527,1649902229150,1649902230530,"1649902235147",0,87,2581399
"101","YA","A",89,2,"variable",5,2,3,2,9,1465,614,664,0,0,0,3,4,1,2,2,1,3,9,1649902235148,1649902236649,1649902237151,1649902237766,1649902239157,1649902239822,1649902241160,"1649902245977",0,88,2592229
"101","YA","A",90,2,"variable",5,2,3,2,8,1505,586,483,0,0,0,4,3,1,2,2,1,1,8,1649902245979,1649902247479,1649902247980,1649902248567,1649902249987,1649902250470,1649902251987,"1649902256603",0,89,2602855
"101","YA","A",91,2,"variable",5,2,3,2,6,1535,568,393,0,0,0,3,4,1,2,2,1,3,6,1649902256604,1649902258104,1649902258606,1649902259174,1649902260612,1649902261006,1649902262615,"1649902266828",0,90,2613080
"101","YA","A",92,2,"variable",1,2,3,2,8,1543,430,153,0,0,0,4,3,1,2,2,1,0,8,1649902266829,1649902268330,1649902268831,1649902269262,1649902270836,1649902270990,1649902272839,"1649902277454",0,91,2623706
"101","YA","A",93,2,"variable",1,2,3,2,7,1550,948,287,0,0,0,4,3,2,1,2,1,4,7,1649902277455,1649902278957,1649902279458,1649902280406,1649902281463,1649902281750,1649902283464,"1649902287879",0,92,2634131
"101","YA","A",94,2,"variable",1,1,2,1,7,1557,443,469,0,0,0,2,1,2,1,2,1,7,7,1649902287881,1649902289381,1649902289882,1649902290327,1649902291890,1649902292359,1649902293890,"1649902298304",0,93,2644556
"101","YA","A",95,2,"variable",5,2,4,1,9,1602,569,499,0,0,0,4,3,2,1,2,1,9,8,1649902298305,1649902299807,1649902300308,1649902300879,1649902302315,1649902302814,1649902304317,"1649902309134",0,94,2655386
"101","YA","A",96,2,"variable",5,1,1,2,6,1632,587,462,0,0,0,2,1,2,1,2,1,8,6,1649902309136,1649902310637,1649902311139,1649902311726,1649902313144,1649902313606,1649902315145,"1649902319358",0,95,2665610
"101","YA","A",97,2,"variable",5,1,2,1,8,1672,723,84,0,0,0,1,2,2,1,2,1,8,8,1649902319360,1649902320861,1649902321362,1649902322086,1649902323369,1649902323454,1649902325372,"1649902329986",0,96,2676238
"101","YA","A",98,2,"variable",1,1,2,1,8,1680,792,27,0,0,0,2,1,2,1,2,1,8,2,1649902329987,1649902331488,1649902331990,1649902332782,1649902333995,1649902334022,1649902335996,"1649902340609",0,97,2686861
"101","YA","A",99,2,"variable",5,2,4,1,7,1715,904,410,0,0,0,3,4,2,1,2,1,7,2,1649902340611,1649902342113,1649902342614,1649902343518,1649902344620,1649902345030,1649902346621,"1649902351036",0,98,2697288
"101","YA","A",100,2,"variable",1,2,4,1,6,1721,565,399,0,0,0,4,3,2,1,2,1,6,1,1649902351037,1649902352539,1649902353041,1649902353606,1649902355047,1649902355446,1649902357049,"1649902361258",0,99,2707510
"101","YA","A",101,2,"variable",5,2,4,2,1,1726,887,296,0,0,0,4,3,2,1,1,2,7,1,1649902361259,1649902362760,1649902363262,1649902364150,1649902365270,1649902365566,1649902367270,"1649902370475",0,100,2716727
"101","YA","A",102,2,"variable",5,1,1,2,5,1751,598,353,0,0,0,2,1,2,1,1,2,5,5,1649902370477,1649902371979,1649902372480,1649902373078,1649902374484,1649902374838,1649902376486,"1649902380500",0,101,2726752
"101","YA","A",103,2,"variable",1,1,2,1,3,1754,783,169,0,0,0,2,1,2,1,1,2,3,3,1649902380501,1649902382001,1649902382503,1649902383286,1649902384509,1649902384678,1649902386511,"1649902390119",0,102,2736371
"101","YA","A",104,2,"variable",5,2,4,2,3,1769,1041,290,0,0,0,3,4,2,1,1,2,0,3,1649902390120,1649902391622,1649902392124,1649902393166,1649902394131,1649902394422,1649902396134,"1649902399742",0,103,2745994
"101","YA","A",105,2,"variable",5,1,2,1,2,1779,460,325,0,0,0,2,1,2,1,1,2,2,3,1649902399744,1649902401245,1649902401746,1649902402206,1649902403752,1649902404078,1649902405753,"1649902409160",0,104,2755412
"101","YA","A",106,2,"variable",5,1,2,1,2,1789,570,11,0,0,0,1,2,2,1,1,2,2,3,1649902409162,1649902410662,1649902411164,1649902411734,1649902413170,1649902413182,1649902415173,"1649902418579",0,105,2764831
"101","YA","A",107,2,"variable",1,2,4,1,6,1795,750,185,0,0,0,4,3,2,1,2,1,6,1,1649902418580,1649902420082,1649902420583,1649902421334,1649902422589,1649902422775,1649902424590,"1649902428804",0,106,2775056
"101","YA","A",108,2,"variable",1,1,1,2,1,1796,789,625,0,0,0,2,1,2,1,2,1,7,1,1649902428805,1649902430307,1649902430808,1649902431598,1649902432813,1649902433439,1649902434815,"1649902438020",0,107,2784272
"101","YA","A",109,2,"variable",5,1,2,1,7,1831,454,137,0,0,0,2,1,2,1,2,1,7,1,1649902438021,1649902439522,1649902440023,1649902440478,1649902442029,1649902442166,1649902444030,"1649902448444",0,108,2794696
"101","YA","A",110,2,"variable",1,2,3,2,4,1835,555,141,0,0,0,4,3,2,1,2,1,6,4,1649902448445,1649902449946,1649902450447,1649902451005,1649902452456,1649902452598,1649902454458,"1649902458269",0,109,2804521
"101","YA","A",111,2,"variable",1,1,2,1,4,1839,828,462,0,0,0,1,2,2,1,2,1,4,8,1649902458270,1649902459771,1649902460272,1649902461101,1649902462279,1649902462742,1649902464280,"1649902468090",0,110,2814342
"101","YA","A",112,2,"variable",5,1,1,2,7,1874,686,545,0,0,0,1,2,2,1,2,1,7,7,1649902468092,1649902469593,1649902470095,1649902470782,1649902472100,1649902472645,1649902474101,"1649902478512",0,111,2824764
"101","YA","A",113,2,"variable",1,1,1,2,6,1880,767,107,0,0,0,1,2,2,1,2,1,6,6,1649902478514,1649902480016,1649902480518,1649902481285,1649902482522,1649902482630,1649902484523,"1649902488734",0,112,2834986
"101","YA","A",114,2,"variable",1,2,3,2,5,1885,762,549,0,0,0,3,4,2,1,2,1,6,5,1649902488736,1649902490237,1649902490738,1649902491501,1649902492744,1649902493294,1649902494746,"1649902498755",0,113,2845007
"101","YA","A",115,2,"variable",5,1,1,2,3,1900,580,15,0,0,0,1,2,2,1,2,1,8,3,1649902498757,1649902500259,1649902500760,1649902501341,1649902502766,1649902502781,1649902504768,"1649902508377",0,114,2854629
"101","YA","A",116,2,"variable",1,1,2,1,7,1907,536,51,0,0,0,2,1,2,1,2,1,7,3,1649902508378,1649902509880,1649902510382,1649902510918,1649902512386,1649902512437,1649902514387,"1649902518799",0,115,2865051
"101","YA","A",117,2,"variable",1,2,4,1,8,1915,738,180,0,0,0,4,3,2,1,2,1,8,4,1649902518800,1649902520301,1649902520803,1649902521541,1649902522809,1649902522990,1649902524811,"1649902529426",0,116,2875678
"101","YA","A",118,2,"variable",1,1,2,2,4,1919,958,130,0,0,0,1,2,1,2,2,1,7,4,1649902529428,1649902530929,1649902531430,1649902532389,1649902533435,1649902533566,1649902535438,"1649902539245",0,117,2885497
"101","YA","A",119,2,"variable",1,2,4,1,6,1925,1380,591,0,0,0,3,4,1,2,2,1,6,1,1649902539247,1649902540749,1649902541250,1649902542630,1649902543253,1649902543845,1649902545255,"1649902549468",0,118,2895720
"101","YA","A",120,2,"variable",1,1,1,1,7,1932,622,296,0,0,0,1,2,1,2,2,1,7,1,1649902549469,1649902550970,1649902551471,1649902552093,1649902553477,1649902553773,1649902555479,"1649902559892",0,119,2906144
"101","YA","A",121,2,"variable",1,2,4,1,7,1939,1092,24,0,0,0,3,4,1,2,2,1,7,3,1649902559893,1649902561395,1649902561896,1649902562989,1649902563900,1649902563925,1649902565902,"1649902570315",0,120,2916567
"101","YA","A",122,2,"variable",5,1,1,1,9,1984,957,583,0,0,0,2,1,1,2,2,1,9,3,1649902570317,1649902571818,1649902572320,1649902573277,1649902574325,1649902574909,1649902576327,"1649902581143",0,121,2927395
"101","YA","A",123,2,"variable",5,2,4,1,8,2024,689,196,0,0,0,3,4,1,2,2,1,8,3,1649902581145,1649902582646,1649902583147,1649902583837,1649902585153,1649902585349,1649902587154,"1649902591768",0,122,2938020
"101","YA","A",124,2,"variable",5,1,1,1,8,2064,862,375,0,0,0,1,2,1,2,2,1,8,4,1649902591770,1649902593272,1649902593774,1649902594637,1649902595782,1649902596157,1649902597784,"1649902602399",0,123,2948651
"101","YA","A",125,2,"variable",5,1,1,1,6,2094,739,453,0,0,0,2,1,1,2,2,1,6,3,1649902602400,1649902603901,1649902604403,1649902605142,1649902606409,1649902606863,1649902608411,"1649902612624",0,124,2958876
"101","YA","A",126,2,"variable",5,2,4,1,7,2129,913,443,0,0,0,4,3,1,2,2,1,7,4,1649902612626,1649902614127,1649902614628,1649902615541,1649902616634,1649902617078,1649902618637,"1649902623048",0,125,2969300
"101","YA","A",127,2,"variable",1,1,2,2,7,2136,849,300,0,0,0,2,1,1,2,2,1,7,7,1649902623050,1649902624552,1649902625053,1649902625902,1649902627057,1649902627358,1649902629059,"1649902633473",0,126,2979725
"101","YA","A",128,2,"variable",5,1,2,2,6,2166,1335,792,0,0,0,1,2,1,2,2,1,5,6,1649902633475,1649902634977,1649902635478,1649902636814,1649902637485,1649902638278,1649902639487,"1649902643697",0,127,2989949
"101","YA","A",129,2,"variable",5,1,2,2,8,2206,728,1066,0,0,0,2,1,1,2,2,1,6,8,1649902643699,1649902645200,1649902645701,1649902646430,1649902647708,1649902648774,1649902649710,"1649902654326",0,128,3000578
"101","YA","A",130,2,"variable",5,2,3,2,7,2241,996,167,0,0,0,4,3,1,2,2,1,7,7,1649902654327,1649902655828,1649902656329,1649902657326,1649902658335,1649902658502,1649902660336,"1649902664746",0,129,3010998
"101","YA","A",131,2,"variable",1,1,2,2,6,2247,1030,15,0,0,0,2,1,1,2,2,1,7,6,1649902664748,1649902666251,1649902666751,1649902667782,1649902668758,1649902668774,1649902670760,"1649902674972",0,130,3021224
"101","YA","A",132,2,"variable",5,2,4,1,8,2287,620,222,0,0,0,3,4,2,1,2,1,8,7,1649902674973,1649902676476,1649902676977,1649902677598,1649902678983,1649902679207,1649902680986,"1649902685601",0,131,3031853
"101","YA","A",133,2,"variable",1,2,4,1,7,2294,608,329,0,0,0,3,4,2,1,2,1,7,8,1649902685603,1649902687104,1649902687605,1649902688214,1649902689610,1649902689939,1649902691610,"1649902696024",0,132,3042276
"101","YA","A",134,2,"variable",1,1,1,2,8,2302,1241,169,0,0,0,1,2,2,1,2,1,7,8,1649902696025,1649902697527,1649902698028,1649902699270,1649902700036,1649902700206,1649902702040,"1649902706654",0,133,3052906
"101","YA","A",135,2,"variable",1,2,3,2,8,2310,685,497,0,0,0,4,3,2,1,2,1,6,8,1649902706655,1649902708156,1649902708657,1649902709342,1649902710660,1649902711158,1649902712661,"1649902717277",0,134,3063529
"101","YA","A",136,2,"variable",1,1,1,2,5,2315,836,390,0,0,0,1,2,2,1,2,1,5,5,1649902717279,1649902718780,1649902719281,1649902720118,1649902721287,1649902721678,1649902723289,"1649902727300",0,135,3073552
"101","YA","A",137,2,"variable",1,1,2,1,0,2315,556,385,0,0,0,1,2,2,1,2,1,0,8,1649902727302,1649902728804,1649902729305,1649902729862,1649902731312,1649902731698,1649902733315,"1649902736319",0,136,3082571
"101","YA","A",138,2,"variable",1,2,4,1,1,2316,1369,197,0,0,0,4,3,2,1,2,1,1,7,1649902736322,1649902737823,1649902738324,1649902739694,1649902740328,1649902740526,1649902742331,"1649902745535",0,137,3091787
"101","YA","A",139,2,"variable",5,1,-1,-1,0,2316,-1,-1,1,0,1,2,1,2,1,2,1,2,6,1649902745537,1649902747039,1649902747540,0,0,0,0,"1649902752048",0,138,3098300
"101","YA","A",140,2,"variable",5,1,1,2,5,2341,385,481,0,0,0,2,1,2,1,2,1,0,5,1649902752050,1649902753551,1649902754052,1649902754438,1649902756060,1649902756542,1649902758062,"1649902762072",0,139,3108324
"101","YA","A",141,2,"variable",5,1,2,1,0,2341,569,36,0,0,0,1,2,2,1,2,1,0,4,1649902762074,1649902763575,1649902764076,1649902764646,1649902766082,1649902766118,1649902768083,"1649902771086",0,140,3117338
"101","YA","A",142,2,"variable",5,2,3,2,7,2376,570,364,0,0,0,4,3,2,1,2,1,1,7,1649902771087,1649902772589,1649902773090,1649902773661,1649902775097,1649902775462,1649902777099,"1649902781511",0,141,3127763
"101","YA","A",143,2,"variable",5,2,4,1,1,2381,754,100,0,0,0,4,3,2,1,2,1,1,7,1649902781514,1649902783015,1649902783516,1649902784270,1649902785522,1649902785622,1649902787523,"1649902790728",0,142,3136980
"101","YA","A",144,2,"variable",1,2,4,1,2,2383,967,459,0,0,0,3,4,2,1,2,1,2,7,1649902790730,1649902792232,1649902792733,1649902793701,1649902794738,1649902795198,1649902796740,"1649902800148",0,143,3146400
"101","YA","A",145,2,"variable",5,2,3,1,3,2398,1060,382,0,0,0,4,3,2,1,1,2,3,5,1649902800150,1649902801651,1649902802153,1649902803213,1649902804160,1649902804542,1649902806161,"1649902809769",0,144,3156021
"101","YA","A",146,2,"variable",5,2,4,2,2,2408,700,125,0,0,0,3,4,2,1,1,2,4,2,1649902809771,1649902811274,1649902811776,1649902812477,1649902813783,1649902813909,1649902815786,"1649902819192",0,145,3165444
"101","YA","A",147,2,"variable",5,2,4,2,6,2438,1288,131,0,0,0,3,4,2,1,1,2,0,6,1649902819193,1649902820695,1649902821196,1649902822485,1649902823203,1649902823334,1649902825204,"1649902829414",0,146,3175666
"101","YA","A",148,2,"variable",5,2,3,1,4,2458,579,398,0,0,0,4,3,2,1,1,2,4,6,1649902829416,1649902830917,1649902831419,1649902831998,1649902833422,1649902833821,1649902835424,"1649902839232",0,147,3185484
"101","YA","A",149,2,"variable",1,2,4,2,6,2464,633,394,0,0,0,3,4,2,1,1,2,6,6,1649902839234,1649902840735,1649902841236,1649902841869,1649902843243,1649902843637,1649902845244,"1649902849454",0,148,3195706
"101","YA","A",150,2,"variable",1,2,3,1,2,2466,355,29,0,0,0,4,3,2,1,1,2,2,8,1649902849456,1649902850957,1649902851458,1649902851813,1649902853464,1649902853494,1649902855465,"1649902858870",0,149,3205122
"101","YA","A",151,2,"variable",5,1,2,1,1,2471,875,77,0,0,0,1,2,2,1,1,2,1,8,1649902858872,1649902860373,1649902860873,1649902861750,1649902862879,1649902862957,1649902864881,"1649902868086",0,150,3214338
"101","YA","A",152,2,"variable",5,2,4,1,0,2471,950,844,0,0,0,3,4,2,1,2,1,0,8,1649902868088,1649902869590,1649902870090,1649902871041,1649902872096,1649902872941,1649902874099,"1649902877104",0,151,3223356
"101","YA","A",153,2,"variable",5,2,3,2,7,2506,913,517,0,0,0,3,4,2,1,2,1,0,7,1649902877106,1649902878607,1649902879108,1649902880022,1649902881113,1649902881630,1649902883114,"1649902887525",0,152,3233777
"101","YA","A",154,2,"variable",5,2,3,2,7,2541,676,327,0,0,0,4,3,2,1,2,1,3,7,1649902887527,1649902889028,1649902889529,1649902890206,1649902891535,1649902891863,1649902893538,"1649902897954",0,153,3244206
"101","YA","A",155,2,"variable",1,2,3,2,8,2549,542,104,0,0,0,4,3,2,1,2,1,4,8,1649902897957,1649902899457,1649902899959,1649902900501,1649902901964,1649902902070,1649902903967,"1649902908582",0,154,3254834
"101","YA","A",156,2,"variable",1,2,4,1,4,2553,539,141,0,0,0,3,4,2,1,2,1,4,8,1649902908584,1649902910085,1649902910586,1649902911126,1649902912593,1649902912734,1649902914594,"1649902918402",0,155,3264654
"101","YA","A",157,2,"variable",1,1,1,2,8,2561,975,82,0,0,0,1,2,2,1,2,1,6,8,1649902918404,1649902919904,1649902920405,1649902921381,1649902922411,1649902922494,1649902924412,"1649902929026",0,156,3275278
"101","YA","A",158,2,"variable",1,1,1,2,8,2569,535,961,0,0,0,1,2,2,1,2,1,4,8,1649902929028,1649902930529,1649902931030,1649902931565,1649902933035,1649902933997,1649902935037,"1649902939652",0,157,3285904
"101","YA","A",159,2,"variable",5,1,1,2,5,2594,681,316,0,0,0,1,2,2,1,2,1,4,5,1649902939655,1649902941157,1649902941658,1649902942340,1649902943665,1649902943981,1649902945667,"1649902949676",0,158,3295928
"101","YA","A",160,2,"variable",1,1,1,2,5,2599,803,23,0,0,0,2,1,2,1,2,1,8,5,1649902949677,1649902951179,1649902951681,1649902952484,1649902953685,1649902953708,1649902955686,"1649902959697",0,159,3305950
"101","YA","A",161,3,"stable",1,2,-1,-1,0,2599,-1,-1,1,0,1,4,3,2,1,2,1,6,6,1649903060483,1649903061983,1649903062484,0,0,0,0,"1649903066990",0,160,3413242
"101","YA","A",162,3,"stable",1,1,1,2,0,2599,315,-1,0,1,1,2,1,2,1,2,1,6,7,1649903066992,1649903068493,1649903068993,1649903069309,1649903071001,0,0,"1649903075507",0,161,3421759
"101","YA","A",163,3,"stable",1,1,2,1,8,2607,414,16,0,0,0,1,2,2,1,2,1,8,7,1649903075509,1649903077009,1649903077510,1649903077925,1649903079517,1649903079533,1649903081518,"1649903086135",0,162,3432387
"101","YA","A",164,3,"stable",5,1,2,1,7,2642,250,84,0,0,0,1,2,2,1,2,1,7,4,1649903086137,1649903087638,1649903088139,1649903088389,1649903090144,1649903090229,1649903092146,"1649903096562",0,163,3442814
"101","YA","A",165,3,"stable",5,2,3,2,8,2682,397,62,0,0,0,4,3,2,1,2,1,9,8,1649903096564,1649903098066,1649903098567,1649903098965,1649903100574,1649903100637,1649903102577,"1649903107191",0,164,3453443
"101","YA","A",166,3,"stable",1,2,3,2,5,2687,402,477,0,0,0,4,3,2,1,2,1,7,5,1649903107193,1649903108694,1649903109195,1649903109597,1649903111199,1649903111677,1649903113200,"1649903117210",0,165,3463462
"101","YA","A",167,3,"stable",5,2,4,1,6,2717,470,63,0,0,0,4,3,2,1,2,1,6,6,1649903117212,1649903118713,1649903119214,1649903119685,1649903121221,1649903121285,1649903123222,"1649903127435",0,166,3473687
"101","YA","A",168,3,"stable",5,2,4,1,6,2747,676,189,0,0,0,3,4,2,1,2,1,6,8,1649903127437,1649903128939,1649903129440,1649903130117,1649903131447,1649903131637,1649903133450,"1649903137663",0,167,3483915
"101","YA","A",169,3,"stable",5,2,4,1,8,2787,641,145,0,0,0,3,4,2,1,2,1,8,7,1649903137666,1649903139167,1649903139667,1649903140309,1649903141676,1649903141822,1649903143678,"1649903148293",0,168,3494545
"101","YA","A",170,3,"stable",1,1,2,1,5,2792,539,372,0,0,0,1,2,2,1,2,1,5,8,1649903148295,1649903149796,1649903150298,1649903150837,1649903152304,1649903152677,1649903154307,"1649903158320",0,169,3504572
"101","YA","A",171,3,"stable",5,2,3,2,9,2837,509,391,0,0,0,3,4,2,1,2,1,3,9,1649903158322,1649903159824,1649903160325,1649903160837,1649903162334,1649903162725,1649903164335,"1649903169154",0,170,3515406
"101","YA","A",172,3,"stable",1,2,3,2,8,2845,886,304,0,0,0,3,4,2,1,2,1,5,8,1649903169155,1649903170657,1649903171158,1649903172045,1649903173165,1649903173469,1649903175166,"1649903179779",0,171,3526031
"101","YA","A",173,3,"stable",1,1,2,1,6,2851,989,384,0,0,0,1,2,2,1,2,1,6,4,1649903179781,1649903181282,1649903181783,1649903182772,1649903183788,1649903184172,1649903185789,"1649903190000",0,172,3536252
"101","YA","A",174,3,"stable",5,1,1,2,2,2861,512,235,0,0,0,2,1,2,1,2,1,4,2,1649903190002,1649903191503,1649903192004,1649903192517,1649903194010,1649903194245,1649903196011,"1649903199417",0,173,3545669
"101","YA","A",175,3,"stable",5,1,1,2,3,2876,598,248,0,0,0,2,1,2,1,2,1,4,3,1649903199418,1649903200920,1649903201422,1649903202021,1649903203428,1649903203676,1649903205430,"1649903209036",0,174,3555288
"101","YA","A",176,3,"stable",5,1,2,1,4,2896,475,367,0,0,0,1,2,2,1,2,1,4,2,1649903209039,1649903210540,1649903211042,1649903211517,1649903213046,1649903213413,1649903215047,"1649903218855",0,175,3565107
"101","YA","A",177,3,"stable",5,1,2,1,5,2921,345,354,0,0,0,2,1,2,1,2,1,5,4,1649903218857,1649903220358,1649903220859,1649903221204,1649903222866,1649903223220,1649903224867,"1649903228877",0,176,3575129
"101","YA","A",178,3,"stable",5,2,3,2,4,2941,379,37,0,0,0,4,3,2,1,2,1,3,4,1649903228879,1649903230380,1649903230881,1649903231260,1649903232887,1649903232924,1649903234887,"1649903238697",0,177,3584949
"101","YA","A",179,3,"stable",5,2,4,1,1,2946,447,136,0,0,0,3,4,2,1,2,1,1,2,1649903238699,1649903240201,1649903240703,1649903241150,1649903242709,1649903242845,1649903244710,"1649903247914",0,178,3594166
"101","YA","A",180,3,"stable",1,1,1,2,5,2951,812,232,0,0,0,2,1,2,1,2,1,1,5,1649903247917,1649903249419,1649903249920,1649903250733,1649903251927,1649903252159,1649903253928,"1649903257940",0,179,3604192
"101","YA","A",181,3,"stable",1,1,2,1,3,2954,948,381,0,0,0,2,1,2,1,2,1,3,4,1649903257941,1649903259443,1649903259944,1649903260893,1649903261951,1649903262333,1649903263954,"1649903267561",0,180,3613813
"101","YA","A",182,3,"stable",1,1,2,1,5,2959,422,17,0,0,0,1,2,2,1,2,1,5,2,1649903267563,1649903269065,1649903269566,1649903269989,1649903271572,1649903271589,1649903273574,"1649903277583",0,181,3623835
"101","YA","A",183,3,"stable",1,1,1,2,2,2961,721,74,0,0,0,2,1,2,1,2,1,8,2,1649903277585,1649903279086,1649903279588,1649903280309,1649903281594,1649903281669,1649903283597,"1649903287004",0,182,3633256
"101","YA","A",184,3,"stable",1,2,4,1,6,2967,523,334,0,0,0,3,4,2,1,2,1,6,1,1649903287007,1649903288508,1649903289010,1649903289533,1649903291014,1649903291349,1649903293017,"1649903297229",0,183,3643481
"101","YA","A",185,3,"stable",1,2,4,1,8,2975,587,46,0,0,0,4,3,2,1,2,1,8,1,1649903297231,1649903298732,1649903299234,1649903299821,1649903301238,1649903301285,1649903303240,"1649903307853",0,184,3654105
"101","YA","A",186,3,"stable",1,2,4,1,7,2982,450,339,0,0,0,3,4,2,1,2,1,7,3,1649903307855,1649903309356,1649903309858,1649903310308,1649903311865,1649903312204,1649903313867,"1649903318281",0,185,3664533
"101","YA","A",187,3,"stable",5,2,4,1,6,3012,614,583,0,0,0,3,4,2,1,2,1,6,2,1649903318283,1649903319784,1649903320285,1649903320900,1649903322293,1649903322876,1649903324294,"1649903328508",0,186,3674760
"101","YA","A",188,3,"stable",1,2,4,1,7,3019,455,1417,0,0,0,3,4,2,1,2,1,7,0,1649903328511,1649903330013,1649903330516,1649903330972,1649903332523,1649903333941,1649903334525,"1649903338939",0,187,3685191
"101","YA","A",189,3,"stable",5,1,1,2,1,3024,692,447,0,0,0,2,1,2,1,2,1,7,1,1649903338942,1649903340443,1649903340944,1649903341636,1649903342949,1649903343396,1649903344950,"1649903348155",0,188,3694407
"101","YA","A",190,3,"stable",5,1,2,1,5,3049,604,373,0,0,0,2,1,2,1,2,1,5,0,1649903348157,1649903349659,1649903350160,1649903350765,1649903352167,1649903352541,1649903354168,"1649903358180",0,189,3704432
"101","YA","A",191,3,"stable",1,1,2,1,7,3056,626,434,0,0,0,2,1,2,1,2,1,7,0,1649903358182,1649903359684,1649903360185,1649903360812,1649903362193,1649903362628,1649903364197,"1649903368611",0,190,3714863
"101","YA","A",192,3,"stable",1,2,4,1,7,3063,843,468,0,0,0,3,4,2,1,2,1,7,5,1649903368613,1649903370115,1649903370616,1649903371460,1649903372623,1649903373092,1649903374626,"1649903379041",0,191,3725293
"101","YA","A",193,3,"stable",5,1,2,1,7,3098,567,506,0,0,0,1,2,2,1,2,1,7,3,1649903379043,1649903380544,1649903381045,1649903381613,1649903383049,1649903383556,1649903385051,"1649903389464",0,192,3735716
"101","YA","A",194,3,"stable",1,1,2,1,9,3107,599,145,0,0,0,1,2,2,1,2,1,9,5,1649903389467,1649903390968,1649903391470,1649903392069,1649903393474,1649903393620,1649903395477,"1649903400292",0,193,3746544
"101","YA","A",195,3,"stable",5,1,2,1,8,3147,498,98,0,0,0,1,2,2,1,2,1,8,8,1649903400295,1649903401796,1649903402297,1649903402797,1649903404305,1649903404404,1649903406307,"1649903410923",0,194,3757175
"101","YA","A",196,3,"stable",1,2,4,1,6,3153,636,144,0,0,0,3,4,2,1,2,1,6,5,1649903410925,1649903412426,1649903412927,1649903413564,1649903414932,1649903415076,1649903416933,"1649903421145",0,195,3767397
"101","YA","A",197,3,"stable",1,1,1,2,4,3157,742,425,0,0,0,2,1,2,1,2,1,5,4,1649903421148,1649903422650,1649903423151,1649903423893,1649903425156,1649903425581,1649903427158,"1649903430966",0,196,3777218
"101","YA","A",198,3,"stable",1,1,2,1,7,3164,634,646,0,0,0,2,1,2,1,2,1,7,3,1649903430969,1649903432469,1649903432970,1649903433605,1649903434975,1649903435621,1649903436976,"1649903441388",0,197,3787640
"101","YA","A",199,3,"stable",5,2,4,1,8,3204,531,251,0,0,0,4,3,2,1,2,1,8,2,1649903441391,1649903442892,1649903443393,1649903443925,1649903445402,1649903445653,1649903447403,"1649903452017",0,198,3798269
"101","YA","A",200,3,"stable",5,1,2,1,6,3234,494,383,0,0,0,2,1,2,1,2,1,6,2,1649903452020,1649903453521,1649903454023,1649903454517,1649903456029,1649903456413,1649903458032,"1649903462243",0,199,3808495
"101","YA","A",201,3,"stable",5,1,2,1,4,3254,621,357,0,0,0,1,2,2,1,2,1,4,0,1649903462245,1649903463747,1649903464248,1649903464869,1649903466254,1649903466613,1649903468257,"1649903472066",0,200,3818318
"101","YA","A",202,3,"stable",5,2,3,2,3,3269,446,295,0,0,0,4,3,2,1,2,1,4,3,1649903472069,1649903473570,1649903474071,1649903474517,1649903476076,1649903476373,1649903478079,"1649903481687",0,201,3827939
"101","YA","A",203,3,"stable",5,2,3,2,3,3284,473,404,0,0,0,4,3,2,1,2,1,5,3,1649903481689,1649903483190,1649903483691,1649903484165,1649903485696,1649903486101,1649903487699,"1649903491306",0,202,3837558
"101","YA","A",204,3,"stable",5,2,4,1,6,3314,454,455,0,0,0,3,4,2,1,2,1,6,4,1649903491309,1649903492809,1649903493311,1649903493765,1649903495318,1649903495773,1649903497319,"1649903501532",0,203,3847785
"101","YA","A",205,3,"stable",5,1,2,1,3,3329,579,20,0,0,0,1,2,2,1,2,1,3,3,1649903501534,1649903503037,1649903503538,1649903504117,1649903505544,1649903505565,1649903507547,"1649903511156",0,204,3857408
"101","YA","A",206,3,"stable",1,2,3,2,3,3332,789,712,0,0,0,4,3,2,1,2,1,0,3,1649903511158,1649903512658,1649903513159,1649903513949,1649903515165,1649903515877,1649903517167,"1649903520774",0,205,3867026
"101","YA","A",207,3,"stable",5,1,2,1,4,3352,626,677,0,0,0,1,2,2,1,2,1,4,6,1649903520777,1649903522278,1649903522779,1649903523405,1649903524784,1649903525461,1649903526785,"1649903530594",0,206,3876846
"101","YA","A",208,3,"stable",1,2,3,2,6,3358,398,64,0,0,0,4,3,2,1,2,1,3,6,1649903530596,1649903532097,1649903532598,1649903532997,1649903534605,1649903534669,1649903536607,"1649903540820",0,207,3887072
"101","YA","A",209,3,"stable",1,1,2,1,6,3364,484,30,0,0,0,1,2,2,1,2,1,6,5,1649903540822,1649903542323,1649903542824,1649903543309,1649903544831,1649903544861,1649903546832,"1649903551041",0,208,3897293
"101","YA","A",210,3,"stable",5,2,3,2,8,3404,685,528,0,0,0,4,3,2,1,2,1,7,8,1649903551044,1649903552546,1649903553048,1649903553733,1649903555052,1649903555581,1649903557053,"1649903561668",0,209,3907920
"101","YA","A",211,3,"stable",1,2,3,2,7,3411,924,94,0,0,0,3,4,2,1,2,1,9,7,1649903561671,1649903563172,1649903563673,1649903564597,1649903565679,1649903565773,1649903567680,"1649903572095",0,210,3918347
"101","YA","A",212,3,"stable",5,2,3,2,9,3456,480,114,0,0,0,4,3,2,1,2,1,7,9,1649903572098,1649903573598,1649903574100,1649903574581,1649903576106,1649903576221,1649903578107,"1649903582923",0,211,3929175
"101","YA","A",213,3,"stable",1,2,3,2,9,3465,571,526,0,0,0,4,3,2,1,2,1,8,9,1649903582926,1649903584427,1649903584929,1649903585501,1649903586935,1649903587461,1649903588935,"1649903593754",0,212,3940006
"101","YA","A",214,3,"stable",5,2,3,2,9,3510,734,185,0,0,0,3,4,2,1,2,1,7,9,1649903593756,1649903595257,1649903595758,1649903596493,1649903597763,1649903597949,1649903599765,"1649903604576",0,213,3950828
"101","YA","A",215,3,"stable",1,1,1,2,8,3518,648,299,0,0,0,2,1,2,1,2,1,7,8,1649903604578,1649903606079,1649903606580,1649903607228,1649903608584,1649903608884,1649903610586,"1649903615203",0,214,3961455
"101","YA","A",216,3,"stable",5,2,3,2,7,3553,580,367,0,0,0,3,4,2,1,2,1,8,7,1649903615206,1649903616706,1649903617208,1649903617788,1649903619213,1649903619580,1649903621214,"1649903625629",0,215,3971881
"101","YA","A",217,3,"stable",1,2,3,2,3,3556,1033,378,0,0,0,3,4,2,1,2,1,7,3,1649903625632,1649903627134,1649903627634,1649903628668,1649903629641,1649903630020,1649903631644,"1649903635251",0,216,3981503
"101","YA","A",218,3,"stable",1,1,2,1,8,3564,508,421,0,0,0,1,2,2,1,2,1,8,6,1649903635254,1649903636754,1649903637255,1649903637764,1649903639262,1649903639684,1649903641265,"1649903645880",0,217,3992132
"101","YA","A",219,3,"stable",1,2,4,1,8,3572,815,433,0,0,0,4,3,2,1,2,1,8,8,1649903645882,1649903647384,1649903647885,1649903648700,1649903649891,1649903650324,1649903651893,"1649903656509",0,218,4002761
"101","YA","A",220,3,"stable",5,2,4,1,8,3612,761,378,0,0,0,4,3,2,1,2,1,8,7,1649903656511,1649903658013,1649903658514,1649903659276,1649903660521,1649903660900,1649903662524,"1649903667139",0,219,4013391
"101","YA","A",221,3,"stable",5,2,4,1,7,3647,837,535,0,0,0,4,3,2,1,2,1,7,6,1649903667142,1649903668642,1649903669143,1649903669981,1649903671149,1649903671685,1649903673150,"1649903677563",0,220,4023815
"101","YA","A",222,3,"stable",1,2,4,1,7,3654,748,302,0,0,0,4,3,2,1,2,1,7,4,1649903677566,1649903679068,1649903679569,1649903680317,1649903681575,1649903681878,1649903683577,"1649903687989",0,221,4034241
"101","YA","A",223,3,"stable",5,1,1,2,4,3674,624,411,0,0,0,2,1,2,1,2,1,6,4,1649903687993,1649903689494,1649903689995,1649903690620,1649903692002,1649903692413,1649903694002,"1649903697812",0,222,4044064
"101","YA","A",224,3,"stable",5,1,2,1,7,3709,546,308,0,0,0,2,1,2,1,2,1,7,4,1649903697815,1649903699317,1649903699817,1649903700364,1649903701823,1649903702132,1649903703825,"1649903708239",0,223,4054491
"101","YA","A",225,3,"stable",1,2,4,1,9,3718,542,343,0,0,0,4,3,2,1,2,1,9,6,1649903708244,1649903709745,1649903710246,1649903710789,1649903712252,1649903712596,1649903714255,"1649903719071",0,224,4065323
"101","YA","A",226,3,"stable",1,2,4,1,8,3726,576,810,0,0,0,3,4,2,1,2,1,8,5,1649903719073,1649903720574,1649903721075,1649903721652,1649903723082,1649903723892,1649903725083,"1649903729698",0,225,4075950
"101","YA","A",227,3,"stable",1,1,2,1,7,3733,612,420,0,0,0,1,2,2,1,2,1,7,5,1649903729700,1649903731201,1649903731703,1649903732316,1649903733711,1649903734132,1649903735713,"1649903740127",0,226,4086379
"101","YA","A",228,3,"stable",1,2,4,1,5,3738,872,473,0,0,0,4,3,2,1,2,1,5,7,1649903740130,1649903741630,1649903742132,1649903743004,1649903744139,1649903744613,1649903746141,"1649903750150",0,227,4096402
"101","YA","A",229,3,"stable",5,1,2,1,4,3758,680,584,0,0,0,1,2,2,1,2,1,4,5,1649903750154,1649903751656,1649903752157,1649903752837,1649903754163,1649903754748,1649903756166,"1649903759976",0,228,4106228
"101","YA","A",230,3,"stable",1,1,1,2,5,3763,839,378,0,0,0,1,2,2,1,2,1,2,5,1649903759979,1649903761480,1649903761981,1649903762820,1649903763987,1649903764365,1649903765988,"1649903769999",0,229,4116251
"101","YA","A",231,3,"stable",1,1,1,2,3,3766,568,402,0,0,0,2,1,2,1,2,1,2,3,1649903770002,1649903771502,1649903772004,1649903772572,1649903774010,1649903774412,1649903776012,"1649903779619",0,230,4125871
"101","YA","A",232,3,"stable",5,1,1,2,2,3776,787,510,0,0,0,1,2,2,1,2,1,1,2,1649903779621,1649903781123,1649903781624,1649903782412,1649903783630,1649903784140,1649903785632,"1649903789037",0,231,4135289
"101","YA","A",233,3,"stable",5,1,2,1,2,3786,617,429,0,0,0,2,1,2,1,2,1,2,1,1649903789040,1649903790542,1649903791043,1649903791661,1649903793047,1649903793476,1649903795049,"1649903798455",0,232,4144707
"101","YA","A",234,3,"stable",5,1,2,1,4,3806,655,256,0,0,0,2,1,2,1,2,1,4,3,1649903798458,1649903799960,1649903800461,1649903801116,1649903802468,1649903802725,1649903804470,"1649903808279",0,233,4154531
"101","YA","A",235,3,"stable",5,2,4,1,5,3831,1064,667,0,0,0,3,4,2,1,2,1,5,0,1649903808281,1649903809783,1649903810284,1649903811348,1649903812289,1649903812956,1649903814291,"1649903818302",0,234,4164554
"101","YA","A",236,3,"stable",5,1,2,1,6,3861,673,318,0,0,0,1,2,2,1,2,1,6,2,1649903818304,1649903819805,1649903820306,1649903820980,1649903822311,1649903822629,1649903824311,"1649903828523",0,235,4174775
"101","YA","A",237,3,"stable",1,2,4,1,9,3870,460,485,0,0,0,3,4,2,1,2,1,9,4,1649903828526,1649903830027,1649903830528,1649903830988,1649903832535,1649903833020,1649903834537,"1649903839351",0,236,4185603
"101","YA","A",238,3,"stable",1,1,2,1,7,3877,665,442,0,0,0,1,2,2,1,2,1,7,3,1649903839353,1649903840854,1649903841355,1649903842020,1649903843361,1649903843804,1649903845363,"1649903849776",0,237,4196028
"101","YA","A",239,3,"stable",1,1,2,1,6,3883,551,521,0,0,0,2,1,2,1,2,1,6,1,1649903849779,1649903851280,1649903851780,1649903852332,1649903853787,1649903854308,1649903855789,"1649903860002",0,238,4206254
"101","YA","A",240,3,"stable",5,2,4,1,6,3913,461,437,0,0,0,3,4,2,1,2,1,6,1,1649903860004,1649903861506,1649903862007,1649903862468,1649903864014,1649903864452,1649903866017,"1649903870229",0,239,4216481
"101","YA","A",241,4,"variable",5,2,4,2,0,3913,857,-1,0,1,1,3,4,2,1,1,2,8,3,1649903880753,1649903882254,1649903882755,1649903883612,1649903884762,0,0,"1649903889266",0,240,4235518
"101","YA","A",242,4,"variable",1,1,2,1,8,3921,475,350,0,0,0,1,2,2,1,1,2,8,5,1649903889269,1649903890771,1649903891272,1649903891748,1649903893278,1649903893628,1649903895279,"1649903899895",0,241,4246147
"101","YA","A",243,4,"variable",5,1,1,2,7,3956,567,258,0,0,0,2,1,2,1,1,2,7,7,1649903899897,1649903901398,1649903901900,1649903902468,1649903903908,1649903904166,1649903905910,"1649903910323",0,242,4256575
"101","YA","A",244,4,"variable",1,1,1,2,6,3962,587,621,0,0,0,2,1,2,1,1,2,6,6,1649903910326,1649903911828,1649903912329,1649903912916,1649903914335,1649903914957,1649903916338,"1649903920549",0,243,4266801
"101","YA","A",245,4,"variable",1,1,2,1,7,3969,561,298,0,0,0,1,2,2,1,1,2,7,7,1649903920552,1649903922053,1649903922554,1649903923116,1649903924561,1649903924860,1649903926563,"1649903930976",0,244,4277228
"101","YA","A",246,4,"variable",5,1,2,1,4,3989,589,374,0,0,0,1,2,2,1,1,2,4,7,1649903930979,1649903932480,1649903932982,1649903933572,1649903934989,1649903935364,1649903936992,"1649903940801",0,245,4287054
"101","YA","A",247,4,"variable",5,1,1,2,4,4009,933,823,0,0,0,2,1,2,1,1,2,3,4,1649903940804,1649903942305,1649903942807,1649903943740,1649903944812,1649903945636,1649903946815,"1649903950624",0,246,4296876
"101","YA","A",248,4,"variable",5,1,1,2,2,4019,623,559,0,0,0,2,1,2,1,1,2,5,2,1649903950626,1649903952128,1649903952629,1649903953253,1649903954636,1649903955196,1649903956639,"1649903960046",0,247,4306298
"101","YA","A",249,4,"variable",5,1,2,2,1,4024,569,482,0,0,0,1,2,1,2,1,2,2,1,1649903960049,1649903961550,1649903962051,1649903962620,1649903964058,1649903964540,1649903966060,"1649903969266",0,248,4315518
"101","YA","A",250,4,"variable",1,1,1,1,2,4026,1020,943,0,0,0,2,1,1,2,1,2,2,0,1649903969269,1649903970771,1649903971271,1649903972292,1649903973276,1649903974220,1649903975278,"1649903978685",0,249,4324937
"101","YA","A",251,4,"variable",5,2,4,2,0,4026,618,-1,0,1,1,3,4,1,2,1,2,3,1,1649903978687,1649903980189,1649903980690,1649903981308,1649903982696,0,0,"1649903987201",0,250,4333453
"101","YA","A",252,4,"variable",5,2,3,1,1,4031,550,80,0,0,0,4,3,1,2,1,2,1,0,1649903987203,1649903988704,1649903989206,1649903989756,1649903991211,1649903991292,1649903993214,"1649903996419",0,251,4342671
"101","YA","A",253,4,"variable",5,1,2,2,0,4031,811,227,0,0,0,1,2,1,2,1,2,0,0,1649903996422,1649903997923,1649903998424,1649903999236,1649904000430,1649904000660,1649904002435,"1649904005440",0,252,4351692
"101","YA","A",254,4,"variable",1,2,3,1,1,4032,967,433,0,0,0,4,3,1,2,1,2,1,2,1649904005442,1649904006943,1649904007445,1649904008412,1649904009450,1649904009884,1649904011453,"1649904014657",0,253,4360910
"101","YA","A",255,4,"variable",5,2,3,1,2,4042,452,126,0,0,0,4,3,1,2,1,2,2,5,1649904014661,1649904016162,1649904016663,1649904017116,1649904018669,1649904018796,1649904020671,"1649904024077",0,254,4370329
"101","YA","A",256,4,"variable",1,2,3,1,2,4044,505,212,0,0,0,4,3,1,2,1,2,2,7,1649904024081,1649904025583,1649904026083,1649904026589,1649904028087,1649904028299,1649904030089,"1649904033495",0,255,4379747
"101","YA","A",257,4,"variable",1,2,4,2,0,4044,813,-1,0,1,1,3,4,1,2,1,2,4,8,1649904033498,1649904035000,1649904035501,1649904036316,1649904037508,0,0,"1649904042013",0,256,4388265
"101","YA","A",258,4,"variable",5,1,2,2,9,4089,431,307,0,0,0,1,2,1,2,1,2,5,9,1649904042016,1649904043518,1649904044019,1649904044451,1649904046025,1649904046332,1649904048026,"1649904052843",0,257,4399095
"101","YA","A",259,4,"variable",5,2,3,1,3,4104,714,67,0,0,0,4,3,1,2,1,2,3,7,1649904052846,1649904054347,1649904054848,1649904055563,1649904056855,1649904056923,1649904058858,"1649904062463",0,258,4408715
"101","YA","A",260,4,"variable",5,1,2,2,5,4129,479,474,0,0,0,2,1,1,2,2,1,5,5,1649904062466,1649904063967,1649904064469,1649904064948,1649904066473,1649904066948,1649904068475,"1649904072487",0,259,4418739
"101","YA","A",261,4,"variable",5,1,2,2,6,4159,615,408,0,0,0,2,1,1,2,2,1,8,6,1649904072490,1649904073991,1649904074492,1649904075108,1649904076498,1649904076908,1649904078501,"1649904082714",0,260,4428966
"101","YA","A",262,4,"variable",5,1,2,2,3,4174,1148,413,0,0,0,2,1,1,2,2,1,8,3,1649904082717,1649904084217,1649904084719,1649904085867,1649904086726,1649904087140,1649904088728,"1649904092337",0,261,4438589
"101","YA","A",263,4,"variable",5,1,1,1,9,4219,836,294,0,0,0,1,2,1,2,2,1,9,3,1649904092340,1649904093841,1649904094343,1649904095180,1649904096349,1649904096644,1649904098352,"1649904103166",0,262,4449418
"101","YA","A",264,4,"variable",1,2,4,1,8,4227,1201,779,0,0,0,3,4,1,2,2,1,8,0,1649904103169,1649904104669,1649904105170,1649904106372,1649904107177,1649904107957,1649904109178,"1649904113792",0,263,4460044
"101","YA","A",265,4,"variable",1,1,2,2,1,4228,510,48,0,0,0,1,2,1,2,2,1,7,1,1649904113795,1649904115297,1649904115798,1649904116308,1649904117804,1649904117852,1649904119804,"1649904123009",0,264,4469261
"101","YA","A",266,4,"variable",1,2,4,1,6,4234,1085,416,0,0,0,3,4,1,2,2,1,6,3,1649904123012,1649904124514,1649904125015,1649904126100,1649904127020,1649904127436,1649904129022,"1649904133233",0,265,4479485
"101","YA","A",267,4,"variable",5,1,1,1,5,4259,742,248,0,0,0,2,1,1,2,2,1,5,4,1649904133236,1649904134736,1649904135237,1649904135980,1649904137244,1649904137492,1649904139245,"1649904143257",0,266,4489509
"101","YA","A",268,4,"variable",5,1,1,1,3,4274,1005,335,0,0,0,1,2,1,2,2,1,3,5,1649904143260,1649904144761,1649904145262,1649904146268,1649904147268,1649904147604,1649904149271,"1649904152878",0,267,4499130
"101","YA","A",269,4,"variable",5,2,3,1,1,4279,607,283,0,0,0,3,4,1,2,1,2,1,6,1649904152881,1649904154383,1649904154884,1649904155492,1649904156889,1649904157172,1649904158889,"1649904162096",0,268,4508348
"101","YA","A",270,4,"variable",1,2,3,1,2,4281,743,185,0,0,0,4,3,1,2,1,2,2,5,1649904162099,1649904163600,1649904164101,1649904164844,1649904166107,1649904166292,1649904168109,"1649904171515",0,269,4517767
"101","YA","A",271,4,"variable",5,2,4,2,3,4296,1018,372,0,0,0,3,4,1,2,1,2,4,3,1649904171518,1649904173019,1649904173521,1649904174540,1649904175528,1649904175900,1649904177530,"1649904181136",0,270,4527388
"101","YA","A",272,4,"variable",1,1,2,2,2,4298,910,721,0,0,0,1,2,1,2,1,2,2,2,1649904181140,1649904182641,1649904183141,1649904184052,1649904185148,1649904185869,1649904187148,"1649904190556",0,271,4536808
"101","YA","A",273,4,"variable",5,2,4,2,4,4318,922,548,0,0,0,4,3,1,2,1,2,2,4,1649904190559,1649904192061,1649904192562,1649904193484,1649904194567,1649904195116,1649904196569,"1649904200379",0,272,4546632
"101","YA","A",274,4,"variable",1,1,1,1,1,4319,898,380,0,0,0,2,1,1,2,1,2,1,5,1649904200383,1649904201885,1649904202386,1649904203284,1649904204392,1649904204772,1649904206393,"1649904209598",0,273,4555850
"101","YA","A",275,4,"variable",5,2,3,1,6,4349,472,651,0,0,0,3,4,1,2,1,2,6,3,1649904209601,1649904211103,1649904211604,1649904212076,1649904213609,1649904214260,1649904215609,"1649904219822",0,274,4566074
"101","YA","A",276,4,"variable",5,1,1,1,5,4374,735,474,0,0,0,1,2,1,2,1,2,5,5,1649904219825,1649904221327,1649904221828,1649904222564,1649904223834,1649904224308,1649904225836,"1649904229848",0,275,4576100
"101","YA","A",277,4,"variable",1,2,3,1,4,4378,581,217,0,0,0,3,4,1,2,1,2,4,0,1649904229851,1649904231353,1649904231854,1649904232436,1649904233859,1649904234076,1649904235861,"1649904239670",0,276,4585922
"101","YA","A",278,4,"variable",5,2,3,1,5,4403,657,106,0,0,0,4,3,1,2,1,2,5,2,1649904239673,1649904241174,1649904241675,1649904242332,1649904243681,1649904243788,1649904245683,"1649904249696",0,277,4595948
"101","YA","A",279,4,"variable",5,2,3,1,7,4438,646,207,0,0,0,3,4,1,2,1,2,7,1,1649904249699,1649904251200,1649904251701,1649904252348,1649904253708,1649904253916,1649904255711,"1649904260124",0,278,4606376
"101","YA","A",280,4,"variable",1,2,4,2,1,4439,739,292,0,0,0,4,3,1,2,1,2,5,1,1649904260127,1649904261628,1649904262129,1649904262868,1649904264136,1649904264428,1649904266138,"1649904269342",0,279,4615594
"101","YA","A",281,4,"variable",5,2,3,1,5,4464,743,41,0,0,0,4,3,1,2,1,2,5,1,1649904269346,1649904270847,1649904271349,1649904272092,1649904273354,1649904273396,1649904275356,"1649904279365",0,280,4625617
"101","YA","A",282,4,"variable",1,1,1,2,3,4467,953,379,0,0,0,1,2,2,1,1,2,6,3,1649904279368,1649904280870,1649904281371,1649904282324,1649904283376,1649904283756,1649904285378,"1649904288986",0,281,4635238
"101","YA","A",283,4,"variable",1,1,2,1,5,4472,604,439,0,0,0,2,1,2,1,1,2,5,0,1649904288990,1649904290490,1649904290991,1649904291596,1649904292997,1649904293436,1649904294998,"1649904299009",0,282,4645261
"101","YA","A",284,4,"variable",1,1,2,1,5,4477,1267,524,0,0,0,1,2,2,1,1,2,5,2,1649904299013,1649904300514,1649904301016,1649904302284,1649904303024,1649904303548,1649904305025,"1649904309034",0,283,4655286
"101","YA","A",285,4,"variable",5,1,2,1,6,4507,587,31,0,0,0,1,2,2,1,1,2,6,4,1649904309038,1649904310540,1649904311040,1649904311628,1649904313044,1649904313076,1649904315046,"1649904319259",0,284,4665511
"101","YA","A",286,4,"variable",5,1,2,1,8,4547,571,21,0,0,0,1,2,2,1,1,2,8,7,1649904319263,1649904320763,1649904321264,1649904321836,1649904323270,1649904323292,1649904325272,"1649904329886",0,285,4676138
"101","YA","A",287,4,"variable",5,1,2,1,8,4587,823,361,0,0,0,2,1,2,1,1,2,8,8,1649904329890,1649904331392,1649904331893,1649904332716,1649904333899,1649904334260,1649904335900,"1649904340515",0,286,4686767
"101","YA","A",288,4,"variable",5,2,3,1,8,4627,899,711,0,0,0,4,3,2,1,1,2,8,9,1649904340518,1649904342019,1649904342521,1649904343420,1649904344525,1649904345236,1649904346526,"1649904351139",0,287,4697391
"101","YA","A",289,4,"variable",1,2,3,1,6,4633,564,295,0,0,0,4,3,2,1,1,2,6,9,1649904351142,1649904352643,1649904353144,1649904353708,1649904355149,1649904355444,1649904357149,"1649904361359",0,288,4707611
"101","YA","A",290,4,"variable",1,1,2,1,3,4636,1030,601,0,0,0,2,1,2,1,1,2,3,8,1649904361362,1649904362864,1649904363366,1649904364396,1649904365371,1649904365972,1649904367372,"1649904370979",0,289,4717231
"101","YA","A",291,4,"variable",1,1,1,2,6,4642,507,277,0,0,0,2,1,2,1,1,2,4,6,1649904370983,1649904372484,1649904372985,1649904373492,1649904374991,1649904375268,1649904376991,"1649904381203",0,290,4727455
"101","YA","A",292,4,"variable",1,2,4,2,8,4650,794,413,0,0,0,4,3,2,1,1,2,5,8,1649904381206,1649904382707,1649904383208,1649904384004,1649904385214,1649904385628,1649904387216,"1649904391830",0,291,4738082
"101","YA","A",293,4,"variable",5,1,1,2,8,4690,665,427,0,0,0,1,2,2,1,1,2,3,8,1649904391833,1649904393334,1649904393835,1649904394500,1649904395840,1649904396268,1649904397842,"1649904402456",0,292,4748708
"101","YA","A",294,4,"variable",1,2,4,2,7,4697,614,362,0,0,0,3,4,2,1,1,2,3,7,1649904402459,1649904403960,1649904404462,1649904405076,1649904406466,1649904406828,1649904408466,"1649904412877",0,293,4759129
"101","YA","A",295,4,"variable",5,2,4,2,8,4737,889,476,0,0,0,3,4,2,1,1,2,1,8,1649904412881,1649904414381,1649904414882,1649904415772,1649904416888,1649904417364,1649904418889,"1649904423502",0,294,4769754
"101","YA","A",296,4,"variable",1,1,1,2,9,4746,708,519,0,0,0,1,2,2,1,2,1,3,9,1649904423510,1649904425011,1649904425511,1649904426220,1649904427516,1649904428036,1649904429518,"1649904434334",0,295,4780587
"101","YA","A",297,4,"variable",5,1,1,2,8,4786,552,362,0,0,0,2,1,2,1,2,1,0,8,1649904434338,1649904435839,1649904436340,1649904436892,1649904438345,1649904438708,1649904440346,"1649904444961",0,296,4791213
"101","YA","A",298,4,"variable",1,1,1,2,9,4795,798,401,0,0,0,1,2,2,1,2,1,2,9,1649904444964,1649904446465,1649904446966,1649904447764,1649904448971,1649904449372,1649904450971,"1649904455787",0,297,4802039
"101","YA","A",299,4,"variable",5,2,4,1,3,4810,883,604,0,0,0,4,3,2,1,2,1,3,7,1649904455791,1649904457292,1649904457793,1649904458676,1649904459799,1649904460404,1649904461802,"1649904465410",0,298,4811662
"101","YA","A",300,4,"variable",1,1,1,2,0,4810,843,-1,0,1,1,2,1,2,1,2,1,1,5,1649904465413,1649904466915,1649904467416,1649904468260,1649904469422,0,0,"1649904473926",0,299,4820178
"101","YA","A",301,4,"variable",1,2,3,2,1,4811,669,416,0,0,0,3,4,2,1,2,1,2,1,1649904473930,1649904475432,1649904475933,1649904476604,1649904477940,1649904478356,1649904479942,"1649904483147",0,300,4829399
"101","YA","A",302,4,"variable",5,2,4,2,1,4816,1025,380,0,0,0,3,4,2,1,1,2,2,1,1649904483151,1649904484652,1649904485153,1649904486179,1649904487159,1649904487539,1649904489161,"1649904492366",0,301,4838618
"101","YA","A",303,4,"variable",1,2,3,1,3,4819,680,322,0,0,0,3,4,2,1,1,2,3,0,1649904492369,1649904493871,1649904494372,1649904495052,1649904496377,1649904496700,1649904498378,"1649904501989",0,302,4848241
"101","YA","A",304,4,"variable",1,2,3,1,3,4822,687,321,0,0,0,3,4,2,1,1,2,3,1,1649904501992,1649904503493,1649904503994,1649904504683,1649904506001,1649904506324,1649904508004,"1649904511612",0,303,4857864
"101","YA","A",305,4,"variable",1,1,1,2,1,4823,650,380,0,0,0,2,1,2,1,1,2,3,1,1649904511615,1649904513116,1649904513617,1649904514268,1649904515623,1649904516004,1649904517625,"1649904520830",0,304,4867082
"101","YA","A",306,4,"variable",1,1,2,1,3,4826,584,323,0,0,0,1,2,2,1,1,2,3,3,1649904520833,1649904522334,1649904522835,1649904523420,1649904524841,1649904525164,1649904526841,"1649904530449",0,305,4876701
"101","YA","A",307,4,"variable",1,1,2,1,6,4832,611,510,0,0,0,1,2,2,1,1,2,6,6,1649904530453,1649904531954,1649904532456,1649904533067,1649904534461,1649904534971,1649904536462,"1649904540677",0,306,4886929
"101","YA","A",308,4,"variable",5,2,3,1,8,4872,679,410,0,0,0,4,3,2,1,1,2,8,5,1649904540680,1649904542182,1649904542684,1649904543364,1649904544689,1649904545100,1649904546692,"1649904551307",0,307,4897559
"101","YA","A",309,4,"variable",1,1,2,1,8,4880,732,406,0,0,0,2,1,2,1,2,1,8,8,1649904551310,1649904552811,1649904553311,1649904554044,1649904555316,1649904555723,1649904557319,"1649904561931",0,308,4908183
"101","YA","A",310,4,"variable",1,2,3,2,7,4887,522,315,0,0,0,3,4,2,1,2,1,7,7,1649904561935,1649904563436,1649904563937,1649904564460,1649904565944,1649904566260,1649904567945,"1649904572359",0,309,4918611
"101","YA","A",311,4,"variable",5,1,1,2,7,4922,827,679,0,0,0,2,1,2,1,2,1,8,7,1649904572366,1649904573868,1649904574369,1649904575196,1649904576373,1649904577052,1649904578373,"1649904582786",0,310,4929038
"101","YA","A",312,4,"variable",1,2,3,2,8,4930,684,431,0,0,0,3,4,2,1,2,1,8,8,1649904582789,1649904584291,1649904584792,1649904585476,1649904586797,1649904587228,1649904588798,"1649904593413",0,311,4939665
"101","YA","A",313,4,"variable",1,2,3,2,9,4939,552,316,0,0,0,4,3,2,1,2,1,8,9,1649904593417,1649904594918,1649904595419,1649904595971,1649904597424,1649904597740,1649904599426,"1649904604242",0,312,4950494
"101","YA","A",314,4,"variable",5,2,3,2,8,4979,451,455,0,0,0,3,4,2,1,2,1,8,8,1649904604245,1649904605747,1649904606248,1649904606699,1649904608253,1649904608708,1649904610253,"1649904614867",0,313,4961119
"101","YA","A",315,4,"variable",5,2,3,2,6,5009,704,464,0,0,0,4,3,2,1,2,1,8,6,1649904614871,1649904616373,1649904616875,1649904617580,1649904618882,1649904619347,1649904620885,"1649904625097",0,314,4971349
"101","YA","A",316,4,"variable",1,2,3,2,3,5012,452,421,0,0,0,4,3,2,1,2,1,7,3,1649904625100,1649904626602,1649904627102,1649904627555,1649904629109,1649904629531,1649904631112,"1649904634719",0,315,4980971
"101","YA","A",317,4,"variable",1,1,2,1,4,5016,646,313,0,0,0,2,1,2,1,2,1,4,4,1649904634723,1649904636224,1649904636725,1649904637371,1649904638730,1649904639043,1649904640731,"1649904644541",0,316,4990793
"101","YA","A",318,4,"variable",5,2,4,1,5,5041,857,516,0,0,0,3,4,2,1,2,1,5,2,1649904644544,1649904646045,1649904646546,1649904647403,1649904648551,1649904649067,1649904650552,"1649904654562",0,317,5000814
"101","YA","A",319,4,"variable",1,2,4,1,3,5044,514,428,0,0,0,4,3,2,1,2,1,3,0,1649904654566,1649904656067,1649904656569,1649904657083,1649904658575,1649904659003,1649904660575,"1649904664185",0,318,5010437
"101","YA","A",320,4,"variable",1,2,3,2,0,5044,923,445,0,0,0,4,3,2,1,2,1,1,0,1649904664188,1649904665690,1649904666191,1649904667115,1649904668197,1649904668643,1649904670199,"1649904673203",0,319,5019455
"102","YA","D",1,1,"variable",1,2,3,1,6,6,1288,1138,0,0,0,3,4,1,2,1,2,6,2,1649920404306,1649920405807,1649920406309,1649920407597,1649920408315,1649920409453,1649920410316,"1649920414528",0,0,1367558
"102","YA","D",2,1,"variable",1,1,1,1,3,9,1057,653,0,0,0,2,1,1,2,1,2,3,6,1649920414528,1649920416030,1649920416531,1649920417589,1649920418536,1649920419189,1649920420538,"1649920424147",0,1,1377177
"102","YA","D",3,1,"variable",1,1,-1,-1,0,9,-1,-1,1,0,1,1,2,1,2,1,2,2,3,1649920424148,1649920425649,1649920426150,0,0,0,0,"1649920430658",0,2,1383688
"102","YA","D",4,1,"variable",1,1,1,1,4,13,775,546,0,0,0,2,1,1,2,1,2,4,4,1649920430658,1649920432160,1649920432661,1649920433437,1649920434667,1649920435213,1649920436667,"1649920440477",0,3,1393507
"102","YA","D",5,1,"variable",5,2,3,1,4,33,1099,1228,0,0,0,4,3,1,2,1,2,4,3,1649920440478,1649920441979,1649920442480,1649920443581,1649920444488,1649920445717,1649920446490,"1649920450301",0,4,1403331
"102","YA","D",6,1,"variable",5,1,-1,-1,0,33,-1,-1,1,0,1,1,2,1,2,1,2,6,4,1649920450302,1649920451803,1649920452305,0,0,0,0,"1649920456811",0,5,1409841
"102","YA","D",7,1,"variable",5,1,1,2,3,48,814,1048,0,0,0,2,1,2,1,1,2,7,3,1649920456812,1649920458313,1649920458815,1649920459629,1649920460821,1649920461870,1649920462823,"1649920466432",0,6,1419462
"102","YA","D",8,1,"variable",1,1,2,1,5,53,1049,761,0,0,0,2,1,2,1,1,2,5,3,1649920466432,1649920467934,1649920468435,1649920469485,1649920470443,1649920471205,1649920472445,"1649920476458",0,7,1429488
"102","YA","D",9,1,"variable",5,1,2,1,9,98,1071,888,0,0,0,2,1,2,1,1,2,9,2,1649920476458,1649920477959,1649920478461,1649920479533,1649920480468,1649920481357,1649920482471,"1649920487289",0,8,1440319
"102","YA","D",10,1,"variable",5,1,2,1,7,133,832,865,0,0,0,1,2,2,1,1,2,7,9,1649920487290,1649920488791,1649920489293,1649920490125,1649920491299,1649920492165,1649920493301,"1649920497717",0,9,1450747
"102","YA","D",11,1,"variable",5,2,3,1,7,168,1180,551,0,0,0,3,4,2,1,1,2,7,7,1649920497717,1649920499219,1649920499720,1649920500901,1649920501726,1649920502278,1649920503728,"1649920508141",0,10,1461171
"102","YA","D",12,1,"variable",5,1,2,1,8,208,914,555,0,0,0,2,1,2,1,1,2,8,6,1649920508142,1649920509645,1649920510147,1649920511061,1649920512154,1649920512709,1649920514156,"1649920518772",0,11,1471802
"102","YA","D",13,1,"variable",1,2,3,1,6,214,774,778,0,0,0,3,4,2,1,1,2,6,4,1649920518772,1649920520274,1649920520775,1649920521549,1649920522779,1649920523558,1649920524782,"1649920528992",0,12,1482022
"102","YA","D",14,1,"variable",5,1,2,1,7,249,938,715,0,0,0,2,1,2,1,1,2,7,5,1649920528993,1649920530494,1649920530995,1649920531933,1649920533002,1649920533717,1649920535003,"1649920539420",0,13,1492450
"102","YA","D",15,1,"variable",5,2,3,1,5,274,1030,746,0,0,0,4,3,2,1,1,2,5,4,1649920539420,1649920540921,1649920541423,1649920542453,1649920543427,1649920544173,1649920545428,"1649920549440",0,14,1502470
"102","YA","D",16,1,"variable",5,1,1,2,6,304,1274,748,0,0,0,1,2,2,1,1,2,2,6,1649920549440,1649920550942,1649920551442,1649920552717,1649920553449,1649920554197,1649920555451,"1649920559664",0,15,1512694
"102","YA","D",17,1,"variable",5,2,4,2,6,334,593,453,0,0,0,4,3,2,1,1,2,1,6,1649920559664,1649920561166,1649920561668,1649920562261,1649920563672,1649920564125,1649920565673,"1649920569883",0,16,1522913
"102","YA","D",18,1,"variable",1,1,1,2,6,340,814,562,0,0,0,2,1,2,1,1,2,1,6,1649920569884,1649920571385,1649920571886,1649920572701,1649920573891,1649920574453,1649920575891,"1649920580105",0,17,1533135
"102","YA","D",19,1,"variable",5,2,4,2,6,370,737,1088,0,0,0,3,4,2,1,1,2,1,6,1649920580105,1649920581606,1649920582108,1649920582845,1649920584116,1649920585205,1649920586119,"1649920590331",0,18,1543361
"102","YA","D",20,1,"variable",1,1,2,1,1,371,631,489,0,0,0,2,1,2,1,1,2,1,2,1649920590331,1649920591832,1649920592334,1649920592965,1649920594340,1649920594829,1649920596341,"1649920599546",0,19,1552576
"102","YA","D",21,1,"variable",1,2,3,1,5,376,728,1156,0,0,0,4,3,1,2,1,2,5,2,1649920599547,1649920601048,1649920601549,1649920602277,1649920603552,1649920604709,1649920605554,"1649920609568",0,20,1562598
"102","YA","D",22,1,"variable",5,2,3,1,6,406,787,518,0,0,0,4,3,1,2,1,2,6,5,1649920609568,1649920611069,1649920611570,1649920612357,1649920613575,1649920614093,1649920615576,"1649920619787",0,21,1572817
"102","YA","D",23,1,"variable",5,1,1,1,8,446,622,489,0,0,0,1,2,1,2,1,2,8,9,1649920619788,1649920621289,1649920621790,1649920622413,1649920623795,1649920624285,1649920625797,"1649920630412",0,22,1583442
"102","YA","D",24,1,"variable",1,2,4,2,4,450,799,690,0,0,0,3,4,1,2,1,2,7,4,1649920630413,1649920631913,1649920632415,1649920633214,1649920634419,1649920635109,1649920636420,"1649920640228",0,23,1593258
"102","YA","D",25,1,"variable",1,2,3,1,8,458,662,593,0,0,0,4,3,1,2,1,2,8,2,1649920640229,1649920641729,1649920642231,1649920642893,1649920644235,1649920644829,1649920646238,"1649920650853",0,24,1603883
"102","YA","D",26,1,"variable",1,2,3,1,8,466,796,413,0,0,0,3,4,1,2,1,2,8,1,1649920650853,1649920652355,1649920652857,1649920653653,1649920654864,1649920655277,1649920656866,"1649920661480",0,25,1614510
"102","YA","D",27,1,"variable",5,1,1,1,8,506,731,941,0,0,0,1,2,1,2,1,2,8,1,1649920661481,1649920662982,1649920663483,1649920664214,1649920665488,1649920666429,1649920667490,"1649920672105",0,26,1625136
"102","YA","D",28,1,"variable",5,2,3,1,4,526,872,770,0,0,0,3,4,1,2,1,2,4,2,1649920672106,1649920673607,1649920674109,1649920674981,1649920676114,1649920676885,1649920678117,"1649920681924",0,27,1634954
"102","YA","D",29,1,"variable",1,1,1,1,8,534,830,57,0,0,0,2,1,1,2,1,2,8,5,1649920681925,1649920683426,1649920683927,1649920684757,1649920685931,1649920685989,1649920687933,"1649920692552",0,28,1645582
"102","YA","D",30,1,"variable",5,1,1,1,0,534,721,-1,0,1,1,1,2,1,2,1,2,8,4,1649920692553,1649920694055,1649920694556,1649920695277,1649920696560,0,0,"1649920701064",0,29,1654094
"102","YA","D",31,1,"variable",1,2,4,2,6,540,769,852,0,0,0,3,4,1,2,1,2,5,6,1649920701065,1649920702566,1649920703067,1649920703837,1649920705072,1649920705925,1649920707074,"1649920711287",0,30,1664317
"102","YA","D",32,1,"variable",1,2,4,1,0,540,1107,-1,0,1,1,4,3,1,2,2,1,0,4,1649920711287,1649920712788,1649920713290,1649920714397,1649920715296,0,0,"1649920719802",0,31,1672832
"102","YA","D",33,1,"variable",1,1,1,1,5,545,896,643,0,0,0,2,1,1,2,2,1,5,3,1649920719802,1649920721303,1649920721805,1649920722701,1649920723809,1649920724453,1649920725812,"1649920729822",0,32,1682852
"102","YA","D",34,1,"variable",5,1,-1,-1,0,545,-1,-1,1,0,1,2,1,1,2,2,1,6,3,1649920729822,1649920731324,1649920731825,0,0,0,0,"1649920736329",0,33,1689359
"102","YA","D",35,1,"variable",1,2,4,1,8,553,928,660,0,0,0,3,4,1,2,2,1,8,2,1649920736330,1649920737831,1649920738332,1649920739261,1649920740337,1649920740997,1649920742337,"1649920746952",0,34,1699982
"102","YA","D",36,1,"variable",5,2,4,1,8,593,922,1092,0,0,0,3,4,1,2,2,1,8,2,1649920746953,1649920748454,1649920748955,1649920749877,1649920750961,1649920752053,1649920752961,"1649920757576",0,35,1710606
"102","YA","D",37,1,"variable",1,2,4,1,5,598,859,670,0,0,0,4,3,1,2,2,1,5,2,1649920757576,1649920759077,1649920759578,1649920760437,1649920761583,1649920762253,1649920763583,"1649920767595",0,36,1720625
"102","YA","D",38,1,"variable",1,1,1,1,5,603,1223,744,0,0,0,1,2,1,2,2,1,5,7,1649920767596,1649920769097,1649920769598,1649920770821,1649920771604,1649920772349,1649920773606,"1649920777618",0,37,1730648
"102","YA","D",39,1,"variable",1,2,-1,-1,0,603,-1,-1,1,0,1,3,4,1,2,1,2,6,6,1649920777619,1649920779120,1649920779622,0,0,0,0,"1649920784128",0,38,1737158
"102","YA","D",40,1,"variable",1,1,2,2,8,611,1082,1292,0,0,0,1,2,1,2,1,2,7,8,1649920784128,1649920785630,1649920786131,1649920787213,1649920788137,1649920789429,1649920790140,"1649920794755",0,39,1747785
"102","YA","D",41,1,"variable",5,2,4,2,7,646,590,737,0,0,0,4,3,1,2,1,2,6,7,1649920794756,1649920796257,1649920796758,1649920797349,1649920798763,1649920799501,1649920800766,"1649920805181",0,40,1758211
"102","YA","D",42,1,"variable",1,2,4,2,7,653,1292,989,0,0,0,3,4,1,2,1,2,1,7,1649920805182,1649920806683,1649920807184,1649920808477,1649920809191,1649920810181,1649920811193,"1649920815607",0,41,1768637
"102","YA","D",43,1,"variable",1,2,4,2,5,658,547,510,0,0,0,4,3,1,2,1,2,2,5,1649920815607,1649920817108,1649920817610,1649920818157,1649920819615,1649920820125,1649920821616,"1649920825629",0,42,1778659
"102","YA","D",44,1,"variable",5,2,4,2,7,693,756,485,0,0,0,4,3,1,2,1,2,2,7,1649920825630,1649920827131,1649920827633,1649920828389,1649920829639,1649920830125,1649920831641,"1649920836055",0,43,1789085
"102","YA","D",45,1,"variable",5,2,4,2,8,733,915,527,0,0,0,4,3,1,2,1,2,3,8,1649920836056,1649920837556,1649920838057,1649920838973,1649920840062,1649920840589,1649920842063,"1649920846678",0,44,1799708
"102","YA","D",46,1,"variable",5,2,4,2,8,773,692,792,0,0,0,3,4,1,2,1,2,7,8,1649920846678,1649920848179,1649920848681,1649920849373,1649920850685,1649920851477,1649920852686,"1649920857300",0,45,1810330
"102","YA","D",47,1,"variable",1,1,1,1,1,774,798,771,0,0,0,1,2,1,2,1,2,1,9,1649920857301,1649920858801,1649920859303,1649920860101,1649920861306,1649920862077,1649920863306,"1649920866512",0,46,1819542
"102","YA","D",48,1,"variable",1,2,4,1,1,775,651,547,0,0,0,4,3,1,2,2,1,1,9,1649920866513,1649920868013,1649920868514,1649920869165,1649920870521,1649920871069,1649920872523,"1649920875728",0,47,1828758
"102","YA","D",49,1,"variable",1,2,3,2,6,781,649,621,0,0,0,4,3,1,2,2,1,1,6,1649920875729,1649920877230,1649920877731,1649920878381,1649920879736,1649920880357,1649920881736,"1649920885947",0,48,1838977
"102","YA","D",50,1,"variable",1,2,3,2,7,788,662,640,0,0,0,4,3,1,2,2,1,0,7,1649920885947,1649920887449,1649920887949,1649920888612,1649920889955,1649920890596,1649920891958,"1649920896372",0,49,1849402
"102","YA","D",51,1,"variable",1,1,1,1,2,790,1124,501,0,0,0,2,1,1,2,2,1,2,6,1649920896373,1649920897874,1649920898376,1649920899500,1649920900383,1649920900884,1649920902385,"1649920905793",0,50,1858823
"102","YA","D",52,1,"variable",1,2,4,1,0,790,656,563,0,0,0,4,3,1,2,2,1,0,4,1649920905794,1649920907294,1649920907796,1649920908452,1649920909800,1649920910364,1649920911802,"1649920914805",0,51,1867835
"102","YA","D",53,1,"variable",1,2,3,2,5,795,1020,789,0,0,0,3,4,1,2,2,1,4,5,1649920914805,1649920916307,1649920916808,1649920917828,1649920918815,1649920919605,1649920920817,"1649920924827",0,52,1877857
"102","YA","D",54,1,"variable",5,2,4,1,4,815,901,576,0,0,0,4,3,1,2,2,1,4,5,1649920924828,1649920926329,1649920926831,1649920927732,1649920928836,1649920929412,1649920930838,"1649920934648",0,53,1887678
"102","YA","D",55,1,"variable",1,1,2,2,8,823,1368,1155,0,0,0,1,2,1,2,2,1,6,8,1649920934648,1649920936149,1649920936651,1649920938020,1649920938656,1649920939812,1649920940658,"1649920945274",0,54,1898304
"102","YA","D",56,1,"variable",5,1,2,2,6,853,1031,578,0,0,0,2,1,1,2,1,2,5,6,1649920945274,1649920946776,1649920947277,1649920948309,1649920949282,1649920949860,1649920951282,"1649920955493",0,55,1908523
"102","YA","D",57,1,"variable",1,1,2,2,8,861,595,942,0,0,0,2,1,1,2,1,2,5,8,1649920955494,1649920956995,1649920957497,1649920958092,1649920959503,1649920960445,1649920961505,"1649920966121",0,56,1919151
"102","YA","D",58,1,"variable",5,2,4,2,8,901,816,490,0,0,0,3,4,1,2,1,2,5,8,1649920966122,1649920967622,1649920968124,1649920968940,1649920970129,1649920970620,1649920972132,"1649920976746",0,57,1929776
"102","YA","D",59,1,"variable",1,1,2,2,8,909,759,729,0,0,0,1,2,1,2,1,2,4,8,1649920976746,1649920978248,1649920978749,1649920979508,1649920980755,1649920981484,1649920982757,"1649920987372",0,58,1940402
"102","YA","D",60,1,"variable",5,2,3,1,3,924,803,598,0,0,0,3,4,1,2,1,2,3,8,1649920987373,1649920988874,1649920989376,1649920990180,1649920991382,1649920991980,1649920993383,"1649920996992",0,59,1950022
"102","YA","D",61,1,"variable",5,1,2,2,8,964,584,612,0,0,0,1,2,1,2,1,2,3,8,1649920996992,1649920998494,1649920998996,1649920999580,1649921001000,1649921001612,1649921003001,"1649921007614",0,60,1960644
"102","YA","D",62,1,"variable",5,1,2,2,9,1009,737,442,0,0,0,2,1,1,2,1,2,1,9,1649921007615,1649921009117,1649921009619,1649921010356,1649921011625,1649921012068,1649921013628,"1649921018445",0,61,1971475
"102","YA","D",63,1,"variable",5,2,4,2,8,1049,964,511,0,0,0,3,4,1,2,1,2,4,8,1649921018446,1649921019947,1649921020448,1649921021412,1649921022453,1649921022964,1649921024454,"1649921029069",0,62,1982099
"102","YA","D",64,1,"variable",5,2,4,2,4,1069,635,500,0,0,0,4,3,1,2,1,2,5,4,1649921029070,1649921030571,1649921031072,1649921031708,1649921033079,1649921033580,1649921035082,"1649921038891",0,63,1991921
"102","YA","D",65,1,"variable",5,1,1,1,9,1114,684,663,0,0,0,2,1,1,2,1,2,9,5,1649921038892,1649921040393,1649921040896,1649921041580,1649921042901,1649921043564,1649921044902,"1649921049721",0,64,2002751
"102","YA","D",66,1,"variable",1,1,1,1,8,1122,1006,473,0,0,0,1,2,1,2,1,2,8,7,1649921049722,1649921051223,1649921051725,1649921052732,1649921053730,1649921054204,1649921055732,"1649921060346",0,65,2013376
"102","YA","D",67,1,"variable",5,2,3,1,8,1162,878,704,0,0,0,3,4,1,2,1,2,8,8,1649921060347,1649921061848,1649921062349,1649921063229,1649921064357,1649921065061,1649921066358,"1649921070973",0,66,2024003
"102","YA","D",68,1,"variable",5,2,3,1,7,1197,879,632,0,0,0,4,3,1,2,1,2,7,8,1649921070974,1649921072475,1649921072976,1649921073855,1649921074981,1649921075613,1649921076981,"1649921081395",0,67,2034425
"102","YA","D",69,1,"variable",1,2,3,2,8,1205,1246,968,0,0,0,3,4,1,2,2,1,9,8,1649921081396,1649921082898,1649921083399,1649921084645,1649921085405,1649921086373,1649921087407,"1649921092023",0,68,2045053
"102","YA","D",70,1,"variable",1,2,3,2,8,1213,954,614,0,0,0,4,3,1,2,2,1,8,8,1649921092024,1649921093524,1649921094027,1649921094981,1649921096031,1649921096645,1649921098032,"1649921102648",0,69,2055678
"102","YA","D",71,1,"variable",5,1,1,1,6,1243,697,19,0,0,0,1,2,1,2,2,1,6,8,1649921102648,1649921104150,1649921104651,1649921105349,1649921106658,1649921106677,1649921108660,"1649921112871",0,70,2065901
"102","YA","D",72,1,"variable",5,2,4,1,7,1278,883,884,0,0,0,3,4,1,2,2,1,7,6,1649921112871,1649921114372,1649921114873,1649921115757,1649921116881,1649921117765,1649921118882,"1649921123297",0,71,2076327
"102","YA","D",73,1,"variable",5,1,2,2,5,1303,656,619,0,0,0,2,1,1,2,2,1,6,5,1649921123298,1649921124799,1649921125301,1649921125957,1649921127305,1649921127925,1649921129308,"1649921133319",0,72,2086349
"102","YA","D",74,1,"variable",5,1,2,2,0,1303,714,-1,0,1,1,1,2,1,2,2,1,2,5,1649921133319,1649921134821,1649921135322,1649921136037,1649921137327,0,0,"1649921141834",0,73,2094864
"102","YA","D",75,1,"variable",1,1,1,1,1,1304,886,809,0,0,0,1,2,1,2,2,1,1,6,1649921141835,1649921143337,1649921143839,1649921144725,1649921145843,1649921146653,1649921147846,"1649921151048",0,74,2104078
"102","YA","D",76,1,"variable",1,1,1,1,1,1305,664,828,0,0,0,1,2,1,2,2,1,1,8,1649921151049,1649921152551,1649921153052,1649921153717,1649921155058,1649921155886,1649921157059,"1649921160265",0,75,2113295
"102","YA","D",77,1,"variable",1,1,2,2,7,1312,624,850,0,0,0,1,2,1,2,2,1,2,7,1649921160266,1649921161767,1649921162269,1649921162893,1649921164274,1649921165125,1649921166275,"1649921170690",0,76,2123720
"102","YA","D",78,1,"variable",5,1,1,1,0,1312,1079,1097,0,0,0,2,1,1,2,2,1,0,6,1649921170691,1649921172193,1649921172693,1649921173773,1649921174699,1649921175797,1649921176701,"1649921179704",0,77,2132734
"102","YA","D",79,1,"variable",5,1,1,1,3,1327,616,777,0,0,0,1,2,1,2,2,1,3,2,1649921179705,1649921181206,1649921181708,1649921182325,1649921183716,1649921184494,1649921185718,"1649921189327",0,78,2142357
"102","YA","D",80,1,"variable",1,1,1,1,6,1333,642,743,0,0,0,2,1,1,2,2,1,6,3,1649921189328,1649921190829,1649921191331,1649921191973,1649921193334,1649921194077,1649921195335,"1649921199546",0,79,2152576
"102","YA","D",81,2,"stable",5,1,-1,-1,0,1333,-1,-1,1,0,1,1,2,2,1,1,2,6,1,1649921211122,1649921212622,1649921213124,0,0,0,0,"1649921217629",0,80,2170659
"102","YA","D",82,2,"stable",5,1,2,1,8,1373,460,1319,0,0,0,2,1,2,1,1,2,8,1,1649921217630,1649921219131,1649921219633,1649921220093,1649921221638,1649921222957,1649921223639,"1649921228256",0,81,2181286
"102","YA","D",83,2,"stable",5,2,4,2,4,1393,649,580,0,0,0,3,4,2,1,1,2,6,4,1649921228257,1649921229759,1649921230260,1649921230909,1649921232265,1649921232845,1649921234266,"1649921238075",0,82,2191105
"102","YA","D",84,2,"stable",1,1,2,1,9,1402,990,599,0,0,0,2,1,2,1,1,2,9,2,1649921238076,1649921239577,1649921240079,1649921241069,1649921242086,1649921242685,1649921244087,"1649921248903",0,83,2201933
"102","YA","D",85,2,"stable",5,2,3,1,7,1437,1257,988,0,0,0,3,4,2,1,1,2,7,4,1649921248904,1649921250405,1649921250908,1649921252165,1649921252914,1649921253902,1649921254916,"1649921259331",0,84,2212361
"102","YA","D",86,2,"stable",5,1,1,2,7,1472,654,691,0,0,0,2,1,2,1,1,2,9,7,1649921259332,1649921260833,1649921261334,1649921261989,1649921263338,1649921264029,1649921265339,"1649921269754",0,85,2222784
"102","YA","D",87,2,"stable",1,1,1,2,7,1479,639,625,0,0,0,1,2,2,1,1,2,9,7,1649921269755,1649921271256,1649921271758,1649921272397,1649921273764,1649921274389,1649921275765,"1649921280179",0,86,2233209
"102","YA","D",88,2,"stable",5,2,3,1,6,1509,935,657,0,0,0,3,4,2,1,1,2,6,8,1649921280180,1649921281681,1649921282182,1649921283117,1649921284187,1649921284845,1649921286189,"1649921290402",0,87,2243432
"102","YA","D",89,2,"stable",1,2,4,2,9,1518,696,722,0,0,0,3,4,2,1,1,2,3,9,1649921290403,1649921291904,1649921292405,1649921293101,1649921294411,1649921295133,1649921296411,"1649921301227",0,88,2254257
"102","YA","D",90,2,"stable",1,2,4,2,8,1526,999,631,0,0,0,4,3,2,1,1,2,1,8,1649921301228,1649921302729,1649921303230,1649921304229,1649921305236,1649921305868,1649921307239,"1649921311854",0,89,2264884
"102","YA","D",91,2,"stable",1,2,3,1,3,1529,946,1035,0,0,0,3,4,2,1,1,2,3,6,1649921311855,1649921313356,1649921313857,1649921314804,1649921315864,1649921316900,1649921317867,"1649921321475",0,90,2274505
"102","YA","D",92,2,"stable",5,2,4,2,8,1569,599,623,0,0,0,4,3,2,1,1,2,0,8,1649921321475,1649921322976,1649921323477,1649921324076,1649921325484,1649921326108,1649921327487,"1649921332102",0,91,2285132
"102","YA","D",93,2,"stable",5,2,4,2,7,1604,545,667,0,0,0,4,3,2,1,1,2,4,7,1649921332103,1649921333606,1649921334106,1649921334652,1649921336113,1649921336780,1649921338115,"1649921342528",0,92,2295558
"102","YA","D",94,2,"stable",5,1,2,1,7,1639,1184,778,0,0,0,2,1,2,1,1,2,7,7,1649921342529,1649921344030,1649921344532,1649921345716,1649921346538,1649921347316,1649921348539,"1649921352955",0,93,2305985
"102","YA","D",95,2,"stable",1,2,4,2,8,1647,822,538,0,0,0,4,3,2,1,1,2,9,8,1649921352956,1649921354456,1649921354957,1649921355780,1649921356962,1649921357500,1649921358963,"1649921363580",0,94,2316610
"102","YA","D",96,2,"stable",1,1,1,2,6,1653,653,488,0,0,0,2,1,2,1,1,2,8,6,1649921363581,1649921365083,1649921365584,1649921366237,1649921367588,1649921368077,1649921369590,"1649921373802",0,95,2326832
"102","YA","D",97,2,"stable",1,1,2,1,8,1661,863,52,0,0,0,1,2,2,1,1,2,8,8,1649921373803,1649921375305,1649921375805,1649921376669,1649921377809,1649921377861,1649921379811,"1649921384426",0,96,2337456
"102","YA","D",98,2,"stable",5,1,2,1,8,1701,687,451,0,0,0,2,1,2,1,1,2,8,2,1649921384427,1649921385928,1649921386429,1649921387117,1649921388434,1649921388885,1649921390435,"1649921395051",0,97,2348081
"102","YA","D",99,2,"stable",1,2,3,1,7,1708,1013,679,0,0,0,3,4,2,1,1,2,7,2,1649921395052,1649921396554,1649921397056,1649921398069,1649921399062,1649921399741,1649921401062,"1649921405474",0,98,2358504
"102","YA","D",100,2,"stable",5,2,4,2,1,1713,735,506,0,0,0,4,3,2,1,1,2,6,1,1649921405474,1649921406976,1649921407478,1649921408213,1649921409482,1649921409989,1649921411484,"1649921414688",0,99,2367718
"102","YA","D",101,2,"stable",1,2,3,1,7,1720,529,547,0,0,0,4,3,2,1,1,2,7,1,1649921414689,1649921416190,1649921416692,1649921417221,1649921418698,1649921419245,1649921420699,"1649921425113",0,100,2378143
"102","YA","D",102,2,"stable",1,1,2,1,5,1725,551,488,0,0,0,2,1,2,1,1,2,5,5,1649921425114,1649921426616,1649921427117,1649921427669,1649921429124,1649921429613,1649921431126,"1649921435138",0,101,2388168
"102","YA","D",103,2,"stable",5,1,2,1,3,1740,695,619,0,0,0,2,1,2,1,1,2,3,3,1649921435139,1649921436640,1649921437141,1649921437837,1649921439146,1649921439765,1649921441146,"1649921444755",0,102,2397785
"102","YA","D",104,2,"stable",1,2,3,1,0,1740,718,73,0,0,0,3,4,2,1,1,2,0,3,1649921444755,1649921446257,1649921446758,1649921447477,1649921448764,1649921448837,1649921450764,"1649921453767",0,103,2406797
"102","YA","D",105,2,"stable",1,1,1,2,3,1743,753,548,0,0,0,2,1,2,1,1,2,2,3,1649921453768,1649921455270,1649921455772,1649921456525,1649921457777,1649921458325,1649921459779,"1649921463388",0,104,2416418
"102","YA","D",106,2,"stable",1,1,2,1,2,1745,853,598,0,0,0,1,2,2,1,1,2,2,3,1649921463389,1649921464890,1649921465391,1649921466245,1649921467398,1649921467997,1649921469401,"1649921472807",0,105,2425837
"102","YA","D",107,2,"stable",5,2,4,2,1,1750,713,605,0,0,0,4,3,2,1,1,2,6,1,1649921472809,1649921474310,1649921474811,1649921475525,1649921476816,1649921477421,1649921478816,"1649921482019",0,106,2435049
"102","YA","D",108,2,"stable",5,1,1,2,1,1755,639,496,0,0,0,2,1,2,1,1,2,7,1,1649921482020,1649921483521,1649921484022,1649921484661,1649921486028,1649921486525,1649921488029,"1649921491234",0,107,2444264
"102","YA","D",109,2,"stable",1,1,2,1,7,1762,1287,632,0,0,0,2,1,2,1,1,2,7,1,1649921491235,1649921492736,1649921493237,1649921494525,1649921495245,1649921495877,1649921497246,"1649921501660",0,108,2454690
"102","YA","D",110,2,"stable",5,2,3,1,6,1792,597,625,0,0,0,4,3,2,1,1,2,6,4,1649921501661,1649921503163,1649921503664,1649921504261,1649921505668,1649921506293,1649921507670,"1649921511880",0,109,2464910
"102","YA","D",111,2,"stable",5,1,2,1,4,1812,720,524,0,0,0,1,2,2,1,1,2,4,8,1649921511882,1649921513384,1649921513884,1649921514605,1649921515889,1649921516413,1649921517890,"1649921521698",0,110,2474728
"102","YA","D",112,2,"stable",1,1,1,2,7,1819,742,606,0,0,0,1,2,2,1,1,2,7,7,1649921521699,1649921523200,1649921523702,1649921524445,1649921525710,1649921526317,1649921527712,"1649921532129",0,111,2485159
"102","YA","D",113,2,"stable",5,1,1,2,6,1849,1088,808,0,0,0,1,2,2,1,1,2,6,6,1649921532130,1649921533632,1649921534133,1649921535221,1649921536141,1649921536949,1649921538141,"1649921542354",0,112,2495384
"102","YA","D",114,2,"stable",5,2,4,2,5,1874,1151,531,0,0,0,3,4,2,1,1,2,6,5,1649921542355,1649921543856,1649921544357,1649921545509,1649921546361,1649921546893,1649921548363,"1649921552375",0,113,2505405
"102","YA","D",115,2,"stable",1,1,1,2,3,1877,914,621,0,0,0,1,2,2,1,1,2,8,3,1649921552376,1649921553878,1649921554379,1649921555293,1649921556384,1649921557005,1649921558385,"1649921561992",0,114,2515022
"102","YA","D",116,2,"stable",5,1,2,1,7,1912,761,476,0,0,0,2,1,2,1,1,2,7,3,1649921561993,1649921563494,1649921563996,1649921564757,1649921566000,1649921566477,1649921568002,"1649921572417",0,115,2525447
"102","YA","D",117,2,"stable",5,2,3,1,8,1952,735,627,0,0,0,4,3,2,1,1,2,8,4,1649921572418,1649921573920,1649921574421,1649921575157,1649921576426,1649921577053,1649921578426,"1649921583041",0,116,2536071
"102","YA","D",118,2,"stable",5,1,2,1,7,1987,656,515,0,0,0,1,2,2,1,1,2,7,4,1649921583042,1649921584543,1649921585044,1649921585701,1649921587050,1649921587565,1649921589052,"1649921593467",0,117,2546497
"102","YA","D",119,2,"stable",5,2,3,1,6,2017,894,633,0,0,0,3,4,2,1,1,2,6,1,1649921593468,1649921594969,1649921595471,1649921596365,1649921597476,1649921598109,1649921599477,"1649921603691",0,118,2556721
"102","YA","D",120,2,"stable",5,1,2,1,7,2052,870,561,0,0,0,1,2,2,1,1,2,7,1,1649921603692,1649921605193,1649921605694,1649921606565,1649921607700,1649921608261,1649921609701,"1649921614116",0,119,2567146
"102","YA","D",121,2,"stable",5,2,3,1,7,2087,894,455,0,0,0,3,4,2,1,1,2,7,3,1649921614117,1649921615618,1649921616119,1649921617013,1649921618125,1649921618581,1649921620127,"1649921624541",0,120,2577571
"102","YA","D",122,2,"stable",1,1,2,1,9,2096,909,670,0,0,0,2,1,2,1,1,2,9,3,1649921624541,1649921626043,1649921626544,1649921627453,1649921628551,1649921629221,1649921630552,"1649921635368",0,121,2588398
"102","YA","D",123,2,"stable",1,2,4,2,3,2099,1330,884,0,0,0,3,4,2,1,1,2,8,3,1649921635369,1649921636870,1649921637371,1649921638701,1649921639377,1649921640261,1649921641378,"1649921644984",0,122,2598014
"102","YA","D",124,2,"stable",1,1,2,1,8,2107,816,787,0,0,0,1,2,2,1,1,2,8,4,1649921644985,1649921646487,1649921646988,1649921647805,1649921648993,1649921649781,1649921650995,"1649921655610",0,123,2608641
"102","YA","D",125,2,"stable",1,1,2,1,6,2113,743,571,0,0,0,2,1,2,1,1,2,6,3,1649921655611,1649921657112,1649921657613,1649921658357,1649921659618,1649921660189,1649921661618,"1649921665831",0,124,2618861
"102","YA","D",126,2,"stable",1,2,3,1,7,2120,745,676,0,0,0,4,3,2,1,1,2,7,4,1649921665832,1649921667334,1649921667836,1649921668581,1649921669840,1649921670516,1649921671842,"1649921676255",0,125,2629285
"102","YA","D",127,2,"stable",5,1,2,1,7,2155,944,652,0,0,0,2,1,2,1,1,2,7,7,1649921676256,1649921677758,1649921678259,1649921679204,1649921680264,1649921680916,1649921682265,"1649921686679",0,126,2639709
"102","YA","D",128,2,"stable",1,1,1,2,6,2161,1344,698,0,0,0,1,2,2,1,1,2,5,6,1649921686680,1649921688182,1649921688683,1649921690028,1649921690690,1649921691388,1649921692691,"1649921696904",0,127,2649934
"102","YA","D",129,2,"stable",1,1,1,2,8,2169,727,675,0,0,0,2,1,2,1,1,2,6,8,1649921696905,1649921698407,1649921698909,1649921699636,1649921700914,1649921701589,1649921702915,"1649921707531",0,128,2660561
"102","YA","D",130,2,"stable",1,2,4,2,7,2176,597,559,0,0,0,4,3,2,1,1,2,7,7,1649921707532,1649921709033,1649921709535,1649921710132,1649921711540,1649921712100,1649921713543,"1649921717958",0,129,2670988
"102","YA","D",131,2,"stable",5,1,2,1,7,2211,1026,901,0,0,0,2,1,2,1,1,2,7,6,1649921717959,1649921719459,1649921719961,1649921720988,1649921721967,1649921722869,1649921723968,"1649921728383",0,130,2681413
"102","YA","D",132,2,"stable",1,2,3,1,8,2219,626,422,0,0,0,3,4,2,1,1,2,8,7,1649921728384,1649921729886,1649921730387,1649921731013,1649921732391,1649921732813,1649921734393,"1649921739008",0,131,2692038
"102","YA","D",133,2,"stable",5,2,3,1,7,2254,744,603,0,0,0,3,4,2,1,1,2,7,8,1649921739010,1649921740511,1649921741013,1649921741757,1649921743018,1649921743621,1649921745019,"1649921749436",0,132,2702466
"102","YA","D",134,2,"stable",5,1,1,2,8,2294,685,783,0,0,0,1,2,2,1,1,2,7,8,1649921749437,1649921750939,1649921751440,1649921752125,1649921753445,1649921754229,1649921755447,"1649921760063",0,133,2713093
"102","YA","D",135,2,"stable",5,2,4,2,8,2334,730,748,0,0,0,4,3,2,1,1,2,6,8,1649921760064,1649921761565,1649921762066,1649921762797,1649921764072,1649921764821,1649921766074,"1649921770689",0,134,2723719
"102","YA","D",136,2,"stable",5,1,1,2,5,2359,672,659,0,0,0,1,2,2,1,1,2,5,5,1649921770690,1649921772192,1649921772693,1649921773365,1649921774698,1649921775357,1649921776699,"1649921780709",0,135,2733739
"102","YA","D",137,2,"stable",5,1,1,2,8,2399,852,590,0,0,0,1,2,2,1,1,2,0,8,1649921780710,1649921782212,1649921782713,1649921783565,1649921784719,1649921785309,1649921786720,"1649921791336",0,136,2744366
"102","YA","D",138,2,"stable",5,2,4,2,7,2434,695,624,0,0,0,4,3,2,1,1,2,1,7,1649921791337,1649921792839,1649921793340,1649921794036,1649921795348,1649921795972,1649921797349,"1649921801763",0,137,2754793
"102","YA","D",139,2,"stable",1,1,1,2,6,2440,940,478,0,0,0,2,1,2,1,1,2,2,6,1649921801764,1649921803266,1649921803767,1649921804708,1649921805774,1649921806252,1649921807775,"1649921811987",0,138,2765017
"102","YA","D",140,2,"stable",1,1,1,2,5,2445,788,511,0,0,0,2,1,2,1,1,2,0,5,1649921811988,1649921813490,1649921813991,1649921814780,1649921815997,1649921816508,1649921817999,"1649921822010",0,139,2775040
"102","YA","D",141,2,"stable",1,1,1,2,4,2449,989,494,0,0,0,1,2,2,1,1,2,0,4,1649921822011,1649921823513,1649921824014,1649921825004,1649921826021,1649921826516,1649921828024,"1649921831833",0,140,2784863
"102","YA","D",142,2,"stable",1,2,3,1,1,2450,1462,775,0,0,0,4,3,2,1,1,2,1,7,1649921831834,1649921833336,1649921833838,1649921835300,1649921835844,1649921836620,1649921837846,"1649921841051",0,141,2794081
"102","YA","D",143,2,"stable",1,2,4,2,7,2457,764,423,0,0,0,4,3,2,1,1,2,1,7,1649921841052,1649921842553,1649921843055,1649921843820,1649921845061,1649921845484,1649921847062,"1649921851477",0,142,2804507
"102","YA","D",144,2,"stable",5,2,3,1,2,2467,963,749,0,0,0,3,4,2,1,1,2,2,7,1649921851478,1649921852979,1649921853481,1649921854444,1649921855487,1649921856236,1649921857489,"1649921860896",0,143,2813926
"102","YA","D",145,2,"stable",1,2,3,1,3,2470,1055,498,0,0,0,4,3,2,1,1,2,3,5,1649921860897,1649921862398,1649921862900,1649921863956,1649921864905,1649921865404,1649921866907,"1649921870516",0,144,2823546
"102","YA","D",146,2,"stable",1,2,4,2,2,2472,1132,47,0,0,0,3,4,2,1,1,2,4,2,1649921870517,1649921872018,1649921872520,1649921873652,1649921874525,1649921874572,1649921876526,"1649921879933",0,145,2832963
"102","YA","D",147,2,"stable",1,2,4,2,6,2478,922,596,0,0,0,3,4,2,1,1,2,0,6,1649921879934,1649921881436,1649921881937,1649921882860,1649921883943,1649921884540,1649921885946,"1649921890157",0,146,2843187
"102","YA","D",148,2,"stable",1,2,4,2,6,2484,899,638,0,0,0,4,3,2,1,1,2,4,6,1649921890158,1649921891659,1649921892160,1649921893060,1649921894166,1649921894804,1649921896167,"1649921900378",0,147,2853408
"102","YA","D",149,2,"stable",5,2,3,1,6,2514,1383,520,0,0,0,3,4,2,1,1,2,6,6,1649921900379,1649921901880,1649921902381,1649921903764,1649921904387,1649921904908,1649921906389,"1649921910600",0,148,2863630
"102","YA","D",150,2,"stable",5,2,3,1,2,2524,839,636,0,0,0,4,3,2,1,1,2,2,8,1649921910601,1649921912103,1649921912605,1649921913444,1649921914609,1649921915245,1649921916610,"1649921920017",0,149,2873047
"102","YA","D",151,2,"stable",1,1,2,1,1,2525,1207,55,0,0,0,1,2,2,1,1,2,1,8,1649921920019,1649921921520,1649921922022,1649921923229,1649921924028,1649921924084,1649921926031,"1649921929235",0,150,2882265
"102","YA","D",152,2,"stable",1,2,3,1,0,2525,846,47,0,0,0,3,4,2,1,1,2,0,8,1649921929236,1649921930738,1649921931239,1649921932085,1649921933245,1649921933293,1649921935247,"1649921938252",0,151,2891282
"102","YA","D",153,2,"stable",1,2,4,2,7,2532,709,606,0,0,0,3,4,2,1,1,2,0,7,1649921938253,1649921939754,1649921940256,1649921940965,1649921942261,1649921942868,1649921944263,"1649921948676",0,152,2901706
"102","YA","D",154,2,"stable",1,2,4,2,7,2539,892,726,0,0,0,4,3,2,1,1,2,3,7,1649921948678,1649921950178,1649921950680,1649921951573,1649921952686,1649921953413,1649921954687,"1649921959101",0,153,2912131
"102","YA","D",155,2,"stable",5,2,4,2,8,2579,629,567,0,0,0,4,3,2,1,1,2,4,8,1649921959102,1649921960603,1649921961104,1649921961734,1649921963109,1649921963677,1649921965112,"1649921969727",0,154,2922757
"102","YA","D",156,2,"stable",5,2,4,2,0,2579,1088,-1,0,1,1,3,4,2,1,1,2,4,8,1649921969729,1649921971230,1649921971731,1649921972820,1649921973739,0,0,"1649921978243",0,155,2931273
"102","YA","D",157,2,"stable",5,1,1,2,8,2619,813,615,0,0,0,1,2,2,1,1,2,6,8,1649921978244,1649921979745,1649921980246,1649921981060,1649921982253,1649921982868,1649921984254,"1649921988869",0,156,2941899
"102","YA","D",158,2,"stable",5,1,1,2,8,2659,619,574,0,0,0,1,2,2,1,1,2,4,8,1649921988871,1649921990371,1649921990872,1649921991492,1649921992878,1649921993452,1649921994878,"1649921999493",0,157,2952523
"102","YA","D",159,2,"stable",1,1,1,2,5,2664,739,533,0,0,0,1,2,2,1,1,2,4,5,1649921999494,1649922000996,1649922001497,1649922002236,1649922003503,1649922004036,1649922005504,"1649922009514",0,158,2962544
"102","YA","D",160,2,"stable",5,1,1,2,5,2689,877,441,0,0,0,2,1,2,1,1,2,8,5,1649922009516,1649922011017,1649922011519,1649922012396,1649922013522,1649922013964,1649922015523,"1649922019535",0,159,2972565
"102","YA","D",161,3,"variable",5,2,4,2,6,2719,721,723,0,0,0,4,3,1,2,1,2,6,6,1649922055249,1649922056750,1649922057251,1649922057973,1649922059257,1649922059980,1649922061257,"1649922065469",0,160,3018500
"102","YA","D",162,3,"variable",5,1,2,2,7,2754,971,655,0,0,0,2,1,1,2,1,2,6,7,1649922065471,1649922066972,1649922067472,1649922068444,1649922069477,1649922070133,1649922071480,"1649922075894",0,161,3028924
"102","YA","D",163,3,"variable",5,1,2,2,7,2789,1354,596,0,0,0,1,2,1,2,1,2,8,7,1649922075895,1649922077397,1649922077898,1649922079253,1649922079904,1649922080500,1649922081906,"1649922086319",0,162,3039349
"102","YA","D",164,3,"variable",1,1,2,2,4,2793,1081,524,0,0,0,1,2,1,2,1,2,7,4,1649922086320,1649922087821,1649922088322,1649922089404,1649922090329,1649922090853,1649922092330,"1649922096139",0,163,3049169
"102","YA","D",165,3,"variable",1,2,4,2,8,2801,757,504,0,0,0,4,3,1,2,1,2,9,8,1649922096141,1649922097641,1649922098143,1649922098900,1649922100149,1649922100653,1649922102150,"1649922106768",0,164,3059798
"102","YA","D",166,3,"variable",5,2,4,2,5,2826,680,811,0,0,0,4,3,1,2,1,2,7,5,1649922106769,1649922108271,1649922108772,1649922109453,1649922110779,1649922111590,1649922112781,"1649922116791",0,165,3069821
"102","YA","D",167,3,"variable",1,2,3,1,6,2832,672,611,0,0,0,4,3,1,2,1,2,6,6,1649922116792,1649922118293,1649922118796,1649922119468,1649922120802,1649922121413,1649922122802,"1649922127013",0,166,3080043
"102","YA","D",168,3,"variable",1,2,-1,-1,0,2832,-1,-1,1,0,1,3,4,1,2,1,2,6,8,1649922127015,1649922128516,1649922129017,0,0,0,0,"1649922133522",0,167,3086552
"102","YA","D",169,3,"variable",1,2,3,1,8,2840,917,889,0,0,0,3,4,1,2,1,2,8,7,1649922133524,1649922135025,1649922135526,1649922136445,1649922137532,1649922138421,1649922139533,"1649922144149",0,168,3097179
"102","YA","D",170,3,"variable",5,1,1,1,5,2865,763,484,0,0,0,1,2,1,2,1,2,5,8,1649922144150,1649922145652,1649922146153,1649922146917,1649922148160,1649922148645,1649922150162,"1649922154173",0,169,3107203
"102","YA","D",171,3,"variable",1,2,4,2,9,2874,620,461,0,0,0,3,4,1,2,1,2,3,9,1649922154175,1649922155676,1649922156177,1649922156797,1649922158183,1649922158645,1649922160185,"1649922165001",0,170,3118031
